Subject,Age,Sex,Language,Major,Session,Cycle,Trial,BaseRate,Stimulus,Response,Matrix,RT,OldKey
1,20,male,native,psychology,1,1,1,20,old,old,hit,2626,right
1,20,male,native,psychology,1,1,2,20,new,new,cr,1919,left
1,20,male,native,psychology,1,1,3,20,new,new,cr,1897,left
1,20,male,native,psychology,1,1,4,20,new,new,cr,1636,right
1,20,male,native,psychology,1,1,5,20,new,new,cr,1021,left
1,20,male,native,psychology,1,1,6,20,new,new,cr,969,left
1,20,male,native,psychology,1,1,7,20,old,old,hit,1467,right
1,20,male,native,psychology,1,1,8,20,new,new,cr,1464,left
1,20,male,native,psychology,1,1,9,20,new,new,cr,1029,left
1,20,male,native,psychology,1,1,10,20,new,new,cr,1444,right
1,20,male,native,psychology,1,1,11,20,old,old,hit,1329,left
1,20,male,native,psychology,1,1,12,20,new,new,cr,1460,right
1,20,male,native,psychology,1,1,13,20,new,new,cr,2113,left
1,20,male,native,psychology,1,1,14,20,old,old,hit,1538,left
1,20,male,native,psychology,1,1,15,20,new,new,cr,2205,right
1,20,male,native,psychology,1,1,16,20,new,new,cr,1467,right
1,20,male,native,psychology,1,1,17,20,new,new,cr,1256,left
1,20,male,native,psychology,1,1,18,20,new,new,cr,1118,right
1,20,male,native,psychology,1,1,19,20,new,new,cr,1209,right
1,20,male,native,psychology,1,1,20,20,new,new,cr,1088,right
1,20,male,native,psychology,1,1,21,20,old,old,hit,1309,left
1,20,male,native,psychology,1,1,22,20,new,new,cr,2032,right
1,20,male,native,psychology,1,1,23,20,new,new,cr,1590,right
1,20,male,native,psychology,1,1,24,20,old,old,hit,3374,right
1,20,male,native,psychology,1,1,25,20,new,old,fa,875,left
1,20,male,native,psychology,1,1,26,20,new,new,cr,3729,right
1,20,male,native,psychology,1,1,27,20,new,new,cr,1456,right
1,20,male,native,psychology,1,1,28,20,new,new,cr,1133,right
1,20,male,native,psychology,1,1,29,20,new,new,cr,1096,left
1,20,male,native,psychology,1,1,30,20,new,new,cr,996,left
1,20,male,native,psychology,1,1,31,20,new,new,cr,917,left
1,20,male,native,psychology,1,1,32,20,new,new,cr,1032,left
1,20,male,native,psychology,1,1,33,20,old,old,hit,1335,left
1,20,male,native,psychology,1,1,34,20,new,new,cr,1386,left
1,20,male,native,psychology,1,1,35,20,new,new,cr,2106,left
1,20,male,native,psychology,1,1,36,20,new,new,cr,1708,right
1,20,male,native,psychology,1,1,37,20,old,new,miss,3152,right
1,20,male,native,psychology,1,1,38,20,new,new,cr,2534,left
1,20,male,native,psychology,1,1,39,20,new,new,cr,4023,right
1,20,male,native,psychology,1,1,40,20,new,new,cr,1002,right
1,20,male,native,psychology,1,1,41,20,new,new,cr,874,right
1,20,male,native,psychology,1,1,42,20,new,new,cr,1360,right
1,20,male,native,psychology,1,1,43,20,new,new,cr,1617,right
1,20,male,native,psychology,1,1,44,20,new,new,cr,1223,right
1,20,male,native,psychology,1,1,45,20,new,new,cr,1167,left
1,20,male,native,psychology,1,1,46,20,old,old,hit,2360,left
1,20,male,native,psychology,1,1,47,20,new,new,cr,1984,left
1,20,male,native,psychology,1,1,48,20,new,new,cr,2136,right
1,20,male,native,psychology,1,1,49,20,old,old,hit,2121,left
1,20,male,native,psychology,1,1,50,20,new,new,cr,2635,right
1,20,male,native,psychology,1,1,51,20,new,new,cr,1367,left
1,20,male,native,psychology,1,1,52,20,new,new,cr,1576,right
1,20,male,native,psychology,1,1,53,20,new,new,cr,1713,left
1,20,male,native,psychology,1,1,54,20,new,new,cr,1203,left
1,20,male,native,psychology,1,1,55,20,new,new,cr,1147,right
1,20,male,native,psychology,1,1,56,20,new,new,cr,933,left
1,20,male,native,psychology,1,1,57,20,new,new,cr,1288,left
1,20,male,native,psychology,1,1,58,20,old,new,miss,1741,right
1,20,male,native,psychology,1,1,59,20,old,new,miss,1726,right
1,20,male,native,psychology,1,1,60,20,new,new,cr,2208,left
1,20,male,native,psychology,1,1,61,20,new,new,cr,1679,right
1,20,male,native,psychology,1,1,62,20,new,new,cr,1602,left
1,20,male,native,psychology,1,1,63,20,new,new,cr,1466,left
1,20,male,native,psychology,1,1,64,20,new,new,cr,1095,left
1,20,male,native,psychology,1,1,65,20,new,new,cr,1107,right
1,20,male,native,psychology,1,1,66,20,old,old,hit,1535,left
1,20,male,native,psychology,1,1,67,20,new,new,cr,1001,right
1,20,male,native,psychology,1,1,68,20,old,old,hit,1529,left
1,20,male,native,psychology,1,1,69,20,old,old,hit,1699,right
1,20,male,native,psychology,1,1,70,20,new,new,cr,1223,left
1,20,male,native,psychology,1,1,71,20,old,old,hit,1534,right
1,20,male,native,psychology,1,1,72,20,new,new,cr,2024,left
1,20,male,native,psychology,1,1,73,20,new,new,cr,1294,left
1,20,male,native,psychology,1,1,74,20,new,new,cr,2322,left
1,20,male,native,psychology,1,1,75,20,new,new,cr,1083,right
1,20,male,native,psychology,1,1,76,20,new,new,cr,1848,right
1,20,male,native,psychology,1,1,77,20,new,new,cr,1829,left
1,20,male,native,psychology,1,1,78,20,new,new,cr,1139,right
1,20,male,native,psychology,1,1,79,20,new,new,cr,2029,right
1,20,male,native,psychology,1,1,80,20,new,new,cr,1667,right
1,20,male,native,psychology,1,1,81,20,old,old,hit,1591,left
1,20,male,native,psychology,1,1,82,20,new,new,cr,2655,right
1,20,male,native,psychology,1,1,83,20,old,new,miss,6011,right
1,20,male,native,psychology,1,1,84,20,new,new,cr,1275,left
1,20,male,native,psychology,1,1,85,20,new,new,cr,1776,left
1,20,male,native,psychology,1,1,86,20,new,new,cr,1041,left
1,20,male,native,psychology,1,1,87,20,new,new,cr,1247,right
1,20,male,native,psychology,1,1,88,20,new,new,cr,1333,right
1,20,male,native,psychology,1,1,89,20,new,new,cr,1064,right
1,20,male,native,psychology,1,1,90,20,old,new,miss,1621,left
1,20,male,native,psychology,1,1,91,20,new,new,cr,1004,right
1,20,male,native,psychology,1,1,92,20,new,new,cr,1180,left
1,20,male,native,psychology,1,1,93,20,new,new,cr,1797,left
1,20,male,native,psychology,1,1,94,20,new,new,cr,2324,right
1,20,male,native,psychology,1,1,95,20,new,new,cr,3453,left
1,20,male,native,psychology,1,1,96,20,new,new,cr,808,left
1,20,male,native,psychology,1,1,97,20,new,new,cr,832,left
1,20,male,native,psychology,1,1,98,20,new,new,cr,984,right
1,20,male,native,psychology,1,1,99,20,old,new,miss,1033,right
1,20,male,native,psychology,1,1,100,20,new,new,cr,1543,right
1,20,male,native,psychology,1,2,1,80,old,old,hit,2627,right
1,20,male,native,psychology,1,2,2,80,old,old,hit,2032,left
1,20,male,native,psychology,1,2,3,80,old,old,hit,1157,right
1,20,male,native,psychology,1,2,4,80,old,new,miss,1023,right
1,20,male,native,psychology,1,2,5,80,old,old,hit,1887,left
1,20,male,native,psychology,1,2,6,80,old,old,hit,1066,right
1,20,male,native,psychology,1,2,7,80,old,old,hit,1944,right
1,20,male,native,psychology,1,2,8,80,old,old,hit,1025,right
1,20,male,native,psychology,1,2,9,80,old,old,hit,1073,left
1,20,male,native,psychology,1,2,10,80,new,new,cr,1326,right
1,20,male,native,psychology,1,2,11,80,new,old,fa,1777,left
1,20,male,native,psychology,1,2,12,80,old,old,hit,929,left
1,20,male,native,psychology,1,2,13,80,old,new,miss,2420,left
1,20,male,native,psychology,1,2,14,80,old,old,hit,1113,right
1,20,male,native,psychology,1,2,15,80,old,old,hit,1061,left
1,20,male,native,psychology,1,2,16,80,old,old,hit,1298,left
1,20,male,native,psychology,1,2,17,80,old,old,hit,870,right
1,20,male,native,psychology,1,2,18,80,new,new,cr,1788,left
1,20,male,native,psychology,1,2,19,80,new,new,cr,1340,right
1,20,male,native,psychology,1,2,20,80,old,old,hit,1006,left
1,20,male,native,psychology,1,2,21,80,old,old,hit,1230,left
1,20,male,native,psychology,1,2,22,80,old,old,hit,965,right
1,20,male,native,psychology,1,2,23,80,old,old,hit,1511,left
1,20,male,native,psychology,1,2,24,80,old,old,hit,945,left
1,20,male,native,psychology,1,2,25,80,old,old,hit,1076,left
1,20,male,native,psychology,1,2,26,80,old,old,hit,1425,right
1,20,male,native,psychology,1,2,27,80,old,old,hit,768,right
1,20,male,native,psychology,1,2,28,80,old,old,hit,1002,right
1,20,male,native,psychology,1,2,29,80,old,old,hit,810,right
1,20,male,native,psychology,1,2,30,80,new,new,cr,1042,left
1,20,male,native,psychology,1,2,31,80,old,old,hit,1185,left
1,20,male,native,psychology,1,2,32,80,old,old,hit,1257,left
1,20,male,native,psychology,1,2,33,80,old,old,hit,1215,right
1,20,male,native,psychology,1,2,34,80,old,old,hit,3191,right
1,20,male,native,psychology,1,2,35,80,new,new,cr,2140,left
1,20,male,native,psychology,1,2,36,80,old,old,hit,1421,left
1,20,male,native,psychology,1,2,37,80,old,old,hit,2332,right
1,20,male,native,psychology,1,2,38,80,new,new,cr,1621,right
1,20,male,native,psychology,1,2,39,80,old,old,hit,939,left
1,20,male,native,psychology,1,2,40,80,new,new,cr,1039,right
1,20,male,native,psychology,1,2,41,80,old,old,hit,797,right
1,20,male,native,psychology,1,2,42,80,new,new,cr,1558,right
1,20,male,native,psychology,1,2,43,80,old,new,miss,1263,left
1,20,male,native,psychology,1,2,44,80,old,old,hit,1877,left
1,20,male,native,psychology,1,2,45,80,old,old,hit,1217,right
1,20,male,native,psychology,1,2,46,80,old,old,hit,1400,left
1,20,male,native,psychology,1,2,47,80,old,new,miss,1096,left
1,20,male,native,psychology,1,2,48,80,new,new,cr,1828,right
1,20,male,native,psychology,1,2,49,80,old,new,miss,2434,left
1,20,male,native,psychology,1,2,50,80,old,new,miss,1253,right
1,20,male,native,psychology,1,2,51,80,old,old,hit,1675,right
1,20,male,native,psychology,1,2,52,80,old,new,miss,1471,left
1,20,male,native,psychology,1,2,53,80,old,old,hit,1804,right
1,20,male,native,psychology,1,2,54,80,old,new,miss,955,right
1,20,male,native,psychology,1,2,55,80,old,old,hit,1725,left
1,20,male,native,psychology,1,2,56,80,new,new,cr,1904,left
1,20,male,native,psychology,1,2,57,80,new,old,fa,1275,left
1,20,male,native,psychology,1,2,58,80,old,old,hit,1024,right
1,20,male,native,psychology,1,2,59,80,old,old,hit,1152,right
1,20,male,native,psychology,1,2,60,80,old,old,hit,2458,left
1,20,male,native,psychology,1,2,61,80,new,new,cr,1166,left
1,20,male,native,psychology,1,2,62,80,old,old,hit,1191,left
1,20,male,native,psychology,1,2,63,80,new,new,cr,1024,right
1,20,male,native,psychology,1,2,64,80,old,old,hit,1071,left
1,20,male,native,psychology,1,2,65,80,old,old,hit,909,left
1,20,male,native,psychology,1,2,66,80,old,old,hit,801,left
1,20,male,native,psychology,1,2,67,80,old,old,hit,1066,left
1,20,male,native,psychology,1,2,68,80,old,new,miss,999,left
1,20,male,native,psychology,1,2,69,80,new,old,fa,920,right
1,20,male,native,psychology,1,2,70,80,old,new,miss,1787,right
1,20,male,native,psychology,1,2,71,80,old,old,hit,1195,right
1,20,male,native,psychology,1,2,72,80,old,new,miss,1843,left
1,20,male,native,psychology,1,2,73,80,old,old,hit,1201,right
1,20,male,native,psychology,1,2,74,80,old,old,hit,2105,right
1,20,male,native,psychology,1,2,75,80,new,old,fa,1707,left
1,20,male,native,psychology,1,2,76,80,old,old,hit,1182,right
1,20,male,native,psychology,1,2,77,80,old,old,hit,935,right
1,20,male,native,psychology,1,2,78,80,old,old,hit,1226,left
1,20,male,native,psychology,1,2,79,80,old,old,hit,2929,right
1,20,male,native,psychology,1,2,80,80,old,old,hit,3089,right
1,20,male,native,psychology,1,2,81,80,new,old,fa,1659,left
1,20,male,native,psychology,1,2,82,80,old,old,hit,1072,right
1,20,male,native,psychology,1,2,83,80,old,old,hit,957,left
1,20,male,native,psychology,1,2,84,80,old,old,hit,1312,left
1,20,male,native,psychology,1,2,85,80,new,new,cr,1123,right
1,20,male,native,psychology,1,2,86,80,old,old,hit,1486,right
1,20,male,native,psychology,1,2,87,80,old,new,miss,1146,right
1,20,male,native,psychology,1,2,88,80,old,old,hit,2373,left
1,20,male,native,psychology,1,2,89,80,old,new,miss,1148,right
1,20,male,native,psychology,1,2,90,80,new,old,fa,1286,right
1,20,male,native,psychology,1,2,91,80,old,old,hit,1067,left
1,20,male,native,psychology,1,2,92,80,old,old,hit,2600,left
1,20,male,native,psychology,1,2,93,80,old,old,hit,2358,right
1,20,male,native,psychology,1,2,94,80,old,old,hit,1022,right
1,20,male,native,psychology,1,2,95,80,old,new,miss,1325,left
1,20,male,native,psychology,1,2,96,80,old,old,hit,1024,left
1,20,male,native,psychology,1,2,97,80,old,old,hit,1007,right
1,20,male,native,psychology,1,2,98,80,new,new,cr,1216,left
1,20,male,native,psychology,1,2,99,80,old,old,hit,1287,right
1,20,male,native,psychology,1,2,100,80,old,old,hit,1324,left
1,20,male,native,psychology,1,3,1,40,new,new,cr,1283,left
1,20,male,native,psychology,1,3,2,40,old,new,miss,1399,right
1,20,male,native,psychology,1,3,3,40,old,old,hit,1255,left
1,20,male,native,psychology,1,3,4,40,new,new,cr,1276,right
1,20,male,native,psychology,1,3,5,40,old,old,hit,1169,left
1,20,male,native,psychology,1,3,6,40,old,old,hit,1994,right
1,20,male,native,psychology,1,3,7,40,new,new,cr,1313,left
1,20,male,native,psychology,1,3,8,40,old,old,hit,1092,left
1,20,male,native,psychology,1,3,9,40,old,old,hit,945,right
1,20,male,native,psychology,1,3,10,40,new,new,cr,1507,left
1,20,male,native,psychology,1,3,11,40,new,old,fa,2686,right
1,20,male,native,psychology,1,3,12,40,new,new,cr,1657,right
1,20,male,native,psychology,1,3,13,40,old,old,hit,1310,right
1,20,male,native,psychology,1,3,14,40,new,new,cr,1713,right
1,20,male,native,psychology,1,3,15,40,old,old,hit,1188,left
1,20,male,native,psychology,1,3,16,40,new,old,fa,1164,left
1,20,male,native,psychology,1,3,17,40,new,new,cr,1142,left
1,20,male,native,psychology,1,3,18,40,new,new,cr,1552,right
1,20,male,native,psychology,1,3,19,40,new,new,cr,2778,right
1,20,male,native,psychology,1,3,20,40,new,old,fa,1185,left
1,20,male,native,psychology,1,3,21,40,new,new,cr,1097,left
1,20,male,native,psychology,1,3,22,40,new,new,cr,1493,left
1,20,male,native,psychology,1,3,23,40,old,old,hit,1521,right
1,20,male,native,psychology,1,3,24,40,new,new,cr,1100,right
1,20,male,native,psychology,1,3,25,40,new,new,cr,1352,right
1,20,male,native,psychology,1,3,26,40,old,old,hit,1001,right
1,20,male,native,psychology,1,3,27,40,new,old,fa,1210,right
1,20,male,native,psychology,1,3,28,40,old,old,hit,849,right
1,20,male,native,psychology,1,3,29,40,old,new,miss,1240,left
1,20,male,native,psychology,1,3,30,40,new,new,cr,1038,left
1,20,male,native,psychology,1,3,31,40,old,old,hit,1421,right
1,20,male,native,psychology,1,3,32,40,old,old,hit,1708,left
1,20,male,native,psychology,1,3,33,40,old,old,hit,1071,left
1,20,male,native,psychology,1,3,34,40,new,old,fa,1597,right
1,20,male,native,psychology,1,3,35,40,new,new,cr,1092,left
1,20,male,native,psychology,1,3,36,40,new,new,cr,1121,right
1,20,male,native,psychology,1,3,37,40,new,new,cr,1052,right
1,20,male,native,psychology,1,3,38,40,new,old,fa,2074,left
1,20,male,native,psychology,1,3,39,40,old,old,hit,1262,left
1,20,male,native,psychology,1,3,40,40,new,new,cr,1635,left
1,20,male,native,psychology,1,3,41,40,old,old,hit,1385,right
1,20,male,native,psychology,1,3,42,40,new,new,cr,922,right
1,20,male,native,psychology,1,3,43,40,new,new,cr,1854,left
1,20,male,native,psychology,1,3,44,40,old,old,hit,1562,left
1,20,male,native,psychology,1,3,45,40,old,old,hit,7907,left
1,20,male,native,psychology,1,3,46,40,old,old,hit,5252,right
1,20,male,native,psychology,1,3,47,40,new,new,cr,6340,right
1,20,male,native,psychology,1,3,48,40,new,old,fa,2406,right
1,20,male,native,psychology,1,3,49,40,old,new,miss,1676,right
1,20,male,native,psychology,1,3,50,40,old,old,hit,1216,right
1,20,male,native,psychology,1,3,51,40,new,new,cr,1095,left
1,20,male,native,psychology,1,3,52,40,new,new,cr,1011,left
1,20,male,native,psychology,1,3,53,40,new,new,cr,1171,left
1,20,male,native,psychology,1,3,54,40,new,new,cr,1276,right
1,20,male,native,psychology,1,3,55,40,new,new,cr,1153,left
1,20,male,native,psychology,1,3,56,40,new,new,cr,1003,right
1,20,male,native,psychology,1,3,57,40,new,new,cr,2491,right
1,20,male,native,psychology,1,3,58,40,old,old,hit,1134,left
1,20,male,native,psychology,1,3,59,40,old,old,hit,1384,left
1,20,male,native,psychology,1,3,60,40,new,old,fa,1865,left
1,20,male,native,psychology,1,3,61,40,old,old,hit,3413,left
1,20,male,native,psychology,1,3,62,40,new,new,cr,1329,left
1,20,male,native,psychology,1,3,63,40,new,new,cr,1475,right
1,20,male,native,psychology,1,3,64,40,new,new,cr,1552,right
1,20,male,native,psychology,1,3,65,40,new,new,cr,13561,right
1,20,male,native,psychology,1,3,66,40,old,old,hit,2192,left
1,20,male,native,psychology,1,3,67,40,old,new,miss,3071,left
1,20,male,native,psychology,1,3,68,40,new,new,cr,1066,left
1,20,male,native,psychology,1,3,69,40,new,old,fa,1255,left
1,20,male,native,psychology,1,3,70,40,new,new,cr,1165,left
1,20,male,native,psychology,1,3,71,40,old,old,hit,1015,right
1,20,male,native,psychology,1,3,72,40,old,old,hit,1190,right
1,20,male,native,psychology,1,3,73,40,old,old,hit,1311,right
1,20,male,native,psychology,1,3,74,40,new,old,fa,3074,right
1,20,male,native,psychology,1,3,75,40,new,new,cr,1020,left
1,20,male,native,psychology,1,3,76,40,old,new,miss,1388,left
1,20,male,native,psychology,1,3,77,40,old,old,hit,1036,right
1,20,male,native,psychology,1,3,78,40,new,new,cr,1451,right
1,20,male,native,psychology,1,3,79,40,new,new,cr,2057,left
1,20,male,native,psychology,1,3,80,40,new,new,cr,1533,right
1,20,male,native,psychology,1,3,81,40,new,new,cr,1287,right
1,20,male,native,psychology,1,3,82,40,new,new,cr,1148,left
1,20,male,native,psychology,1,3,83,40,new,old,fa,1958,right
1,20,male,native,psychology,1,3,84,40,new,new,cr,1167,right
1,20,male,native,psychology,1,3,85,40,new,new,cr,1032,left
1,20,male,native,psychology,1,3,86,40,new,new,cr,1143,right
1,20,male,native,psychology,1,3,87,40,old,old,hit,945,right
1,20,male,native,psychology,1,3,88,40,old,old,hit,2147,right
1,20,male,native,psychology,1,3,89,40,new,new,cr,1124,left
1,20,male,native,psychology,1,3,90,40,new,old,fa,2079,right
1,20,male,native,psychology,1,3,91,40,old,new,miss,1106,left
1,20,male,native,psychology,1,3,92,40,old,old,hit,990,left
1,20,male,native,psychology,1,3,93,40,new,new,cr,1247,right
1,20,male,native,psychology,1,3,94,40,old,new,miss,981,right
1,20,male,native,psychology,1,3,95,40,old,old,hit,1046,left
1,20,male,native,psychology,1,3,96,40,new,new,cr,1733,left
1,20,male,native,psychology,1,3,97,40,new,old,fa,1814,left
1,20,male,native,psychology,1,3,98,40,new,new,cr,1253,left
1,20,male,native,psychology,1,3,99,40,old,new,miss,1514,right
1,20,male,native,psychology,1,3,100,40,old,old,hit,949,left
1,20,male,native,psychology,1,4,1,20,new,new,cr,1413,left
1,20,male,native,psychology,1,4,2,20,new,new,cr,1316,right
1,20,male,native,psychology,1,4,3,20,new,new,cr,1095,left
1,20,male,native,psychology,1,4,4,20,new,new,cr,1091,left
1,20,male,native,psychology,1,4,5,20,new,new,cr,1072,left
1,20,male,native,psychology,1,4,6,20,new,new,cr,1070,left
1,20,male,native,psychology,1,4,7,20,new,old,fa,1403,right
1,20,male,native,psychology,1,4,8,20,old,old,hit,971,right
1,20,male,native,psychology,1,4,9,20,old,old,hit,1644,right
1,20,male,native,psychology,1,4,10,20,old,old,hit,946,left
1,20,male,native,psychology,1,4,11,20,new,new,cr,980,left
1,20,male,native,psychology,1,4,12,20,new,new,cr,1765,right
1,20,male,native,psychology,1,4,13,20,new,new,cr,1221,right
1,20,male,native,psychology,1,4,14,20,new,new,cr,1389,left
1,20,male,native,psychology,1,4,15,20,new,new,cr,1677,right
1,20,male,native,psychology,1,4,16,20,new,new,cr,1009,right
1,20,male,native,psychology,1,4,17,20,old,old,hit,1168,left
1,20,male,native,psychology,1,4,18,20,new,new,cr,1034,left
1,20,male,native,psychology,1,4,19,20,new,old,fa,1369,right
1,20,male,native,psychology,1,4,20,20,new,new,cr,1642,right
1,20,male,native,psychology,1,4,21,20,new,new,cr,960,right
1,20,male,native,psychology,1,4,22,20,old,old,hit,1553,right
1,20,male,native,psychology,1,4,23,20,new,new,cr,1131,left
1,20,male,native,psychology,1,4,24,20,new,new,cr,1653,right
1,20,male,native,psychology,1,4,25,20,old,old,hit,1931,left
1,20,male,native,psychology,1,4,26,20,new,new,cr,1972,left
1,20,male,native,psychology,1,4,27,20,new,new,cr,972,left
1,20,male,native,psychology,1,4,28,20,new,new,cr,766,left
1,20,male,native,psychology,1,4,29,20,new,new,cr,1096,right
1,20,male,native,psychology,1,4,30,20,new,new,cr,932,right
1,20,male,native,psychology,1,4,31,20,new,old,fa,1463,left
1,20,male,native,psychology,1,4,32,20,old,old,hit,2660,right
1,20,male,native,psychology,1,4,33,20,new,new,cr,1344,right
1,20,male,native,psychology,1,4,34,20,new,new,cr,1201,left
1,20,male,native,psychology,1,4,35,20,old,old,hit,1065,left
1,20,male,native,psychology,1,4,36,20,new,new,cr,1287,right
1,20,male,native,psychology,1,4,37,20,new,new,cr,1243,left
1,20,male,native,psychology,1,4,38,20,new,new,cr,1185,right
1,20,male,native,psychology,1,4,39,20,new,new,cr,1114,right
1,20,male,native,psychology,1,4,40,20,new,new,cr,1413,left
1,20,male,native,psychology,1,4,41,20,old,new,miss,1460,left
1,20,male,native,psychology,1,4,42,20,new,new,cr,1329,right
1,20,male,native,psychology,1,4,43,20,new,new,cr,1844,left
1,20,male,native,psychology,1,4,44,20,new,new,cr,1872,left
1,20,male,native,psychology,1,4,45,20,old,new,miss,989,right
1,20,male,native,psychology,1,4,46,20,new,new,cr,2398,right
1,20,male,native,psychology,1,4,47,20,new,new,cr,1204,right
1,20,male,native,psychology,1,4,48,20,new,new,cr,1052,right
1,20,male,native,psychology,1,4,49,20,new,new,cr,890,right
1,20,male,native,psychology,1,4,50,20,new,new,cr,831,right
1,20,male,native,psychology,1,4,51,20,new,new,cr,2150,left
1,20,male,native,psychology,1,4,52,20,new,new,cr,1383,left
1,20,male,native,psychology,1,4,53,20,new,new,cr,1383,left
1,20,male,native,psychology,1,4,54,20,new,new,cr,935,left
1,20,male,native,psychology,1,4,55,20,new,new,cr,1354,right
1,20,male,native,psychology,1,4,56,20,old,old,hit,1964,right
1,20,male,native,psychology,1,4,57,20,new,new,cr,2164,right
1,20,male,native,psychology,1,4,58,20,new,new,cr,2068,left
1,20,male,native,psychology,1,4,59,20,new,new,cr,1016,left
1,20,male,native,psychology,1,4,60,20,old,old,hit,1367,left
1,20,male,native,psychology,1,4,61,20,new,new,cr,1528,left
1,20,male,native,psychology,1,4,62,20,new,new,cr,1011,left
1,20,male,native,psychology,1,4,63,20,old,new,miss,1266,left
1,20,male,native,psychology,1,4,64,20,new,new,cr,791,left
1,20,male,native,psychology,1,4,65,20,new,new,cr,833,left
1,20,male,native,psychology,1,4,66,20,new,new,cr,1272,right
1,20,male,native,psychology,1,4,67,20,new,new,cr,2253,left
1,20,male,native,psychology,1,4,68,20,new,old,fa,1289,right
1,20,male,native,psychology,1,4,69,20,new,new,cr,2174,left
1,20,male,native,psychology,1,4,70,20,old,old,hit,1630,left
1,20,male,native,psychology,1,4,71,20,old,old,hit,2020,right
1,20,male,native,psychology,1,4,72,20,new,new,cr,1482,right
1,20,male,native,psychology,1,4,73,20,new,new,cr,1030,right
1,20,male,native,psychology,1,4,74,20,new,new,cr,1765,left
1,20,male,native,psychology,1,4,75,20,new,new,cr,1221,right
1,20,male,native,psychology,1,4,76,20,new,new,cr,1388,left
1,20,male,native,psychology,1,4,77,20,new,new,cr,1805,right
1,20,male,native,psychology,1,4,78,20,new,new,cr,1036,right
1,20,male,native,psychology,1,4,79,20,old,old,hit,1483,right
1,20,male,native,psychology,1,4,80,20,new,new,cr,1767,right
1,20,male,native,psychology,1,4,81,20,old,old,hit,2263,right
1,20,male,native,psychology,1,4,82,20,new,new,cr,883,right
1,20,male,native,psychology,1,4,83,20,old,old,hit,1144,left
1,20,male,native,psychology,1,4,84,20,new,new,cr,1762,left
1,20,male,native,psychology,1,4,85,20,new,new,cr,1314,right
1,20,male,native,psychology,1,4,86,20,new,new,cr,1285,left
1,20,male,native,psychology,1,4,87,20,old,old,hit,1258,right
1,20,male,native,psychology,1,4,88,20,new,new,cr,2464,left
1,20,male,native,psychology,1,4,89,20,new,new,cr,1283,right
1,20,male,native,psychology,1,4,90,20,new,new,cr,999,right
1,20,male,native,psychology,1,4,91,20,new,new,cr,984,right
1,20,male,native,psychology,1,4,92,20,new,new,cr,1305,left
1,20,male,native,psychology,1,4,93,20,new,new,cr,1373,right
1,20,male,native,psychology,1,4,94,20,new,new,cr,878,left
1,20,male,native,psychology,1,4,95,20,new,new,cr,1443,left
1,20,male,native,psychology,1,4,96,20,new,new,cr,1024,left
1,20,male,native,psychology,1,4,97,20,new,new,cr,2224,right
1,20,male,native,psychology,1,4,98,20,new,new,cr,1982,left
1,20,male,native,psychology,1,4,99,20,new,new,cr,949,right
1,20,male,native,psychology,1,4,100,20,old,old,hit,2407,left
1,20,male,native,psychology,1,5,1,80,old,old,hit,1223,right
1,20,male,native,psychology,1,5,2,80,new,new,cr,1087,left
1,20,male,native,psychology,1,5,3,80,old,old,hit,924,left
1,20,male,native,psychology,1,5,4,80,old,old,hit,1471,right
1,20,male,native,psychology,1,5,5,80,old,old,hit,828,left
1,20,male,native,psychology,1,5,6,80,old,old,hit,1219,right
1,20,male,native,psychology,1,5,7,80,old,old,hit,1291,left
1,20,male,native,psychology,1,5,8,80,new,old,fa,1007,right
1,20,male,native,psychology,1,5,9,80,old,old,hit,1743,left
1,20,male,native,psychology,1,5,10,80,old,old,hit,1297,right
1,20,male,native,psychology,1,5,11,80,old,old,hit,1908,left
1,20,male,native,psychology,1,5,12,80,old,old,hit,1167,right
1,20,male,native,psychology,1,5,13,80,new,new,cr,1768,left
1,20,male,native,psychology,1,5,14,80,old,new,miss,2089,left
1,20,male,native,psychology,1,5,15,80,old,old,hit,1068,right
1,20,male,native,psychology,1,5,16,80,old,old,hit,1418,left
1,20,male,native,psychology,1,5,17,80,old,old,hit,5161,left
1,20,male,native,psychology,1,5,18,80,new,new,cr,1788,right
1,20,male,native,psychology,1,5,19,80,old,old,hit,876,right
1,20,male,native,psychology,1,5,20,80,old,old,hit,993,right
1,20,male,native,psychology,1,5,21,80,old,old,hit,1377,right
1,20,male,native,psychology,1,5,22,80,old,old,hit,3074,right
1,20,male,native,psychology,1,5,23,80,old,old,hit,1372,right
1,20,male,native,psychology,1,5,24,80,old,old,hit,877,right
1,20,male,native,psychology,1,5,25,80,old,old,hit,1506,left
1,20,male,native,psychology,1,5,26,80,old,old,hit,1246,left
1,20,male,native,psychology,1,5,27,80,old,old,hit,995,left
1,20,male,native,psychology,1,5,28,80,old,old,hit,884,left
1,20,male,native,psychology,1,5,29,80,old,old,hit,3689,right
1,20,male,native,psychology,1,5,30,80,old,old,hit,842,right
1,20,male,native,psychology,1,5,31,80,new,new,cr,1489,left
1,20,male,native,psychology,1,5,32,80,old,old,hit,781,left
1,20,male,native,psychology,1,5,33,80,new,new,cr,1446,left
1,20,male,native,psychology,1,5,34,80,new,new,cr,1156,right
1,20,male,native,psychology,1,5,35,80,new,new,cr,1566,right
1,20,male,native,psychology,1,5,36,80,old,old,hit,839,right
1,20,male,native,psychology,1,5,37,80,old,old,hit,782,right
1,20,male,native,psychology,1,5,38,80,old,new,miss,1943,left
1,20,male,native,psychology,1,5,39,80,old,old,hit,2321,left
1,20,male,native,psychology,1,5,40,80,old,old,hit,826,left
1,20,male,native,psychology,1,5,41,80,new,old,fa,945,right
1,20,male,native,psychology,1,5,42,80,old,old,hit,1748,left
1,20,male,native,psychology,1,5,43,80,old,old,hit,2085,left
1,20,male,native,psychology,1,5,44,80,old,old,hit,1272,right
1,20,male,native,psychology,1,5,45,80,old,old,hit,1613,right
1,20,male,native,psychology,1,5,46,80,old,old,hit,758,right
1,20,male,native,psychology,1,5,47,80,new,new,cr,2014,left
1,20,male,native,psychology,1,5,48,80,old,old,hit,1412,right
1,20,male,native,psychology,1,5,49,80,old,old,hit,931,right
1,20,male,native,psychology,1,5,50,80,new,new,cr,1174,right
1,20,male,native,psychology,1,5,51,80,old,old,hit,1663,left
1,20,male,native,psychology,1,5,52,80,old,old,hit,836,left
1,20,male,native,psychology,1,5,53,80,old,old,hit,955,left
1,20,male,native,psychology,1,5,54,80,old,old,hit,1165,right
1,20,male,native,psychology,1,5,55,80,old,old,hit,1191,left
1,20,male,native,psychology,1,5,56,80,old,old,hit,895,left
1,20,male,native,psychology,1,5,57,80,old,old,hit,1076,right
1,20,male,native,psychology,1,5,58,80,new,new,cr,3281,left
1,20,male,native,psychology,1,5,59,80,old,old,hit,1698,right
1,20,male,native,psychology,1,5,60,80,old,old,hit,1173,left
1,20,male,native,psychology,1,5,61,80,new,new,cr,1630,left
1,20,male,native,psychology,1,5,62,80,old,old,hit,1396,left
1,20,male,native,psychology,1,5,63,80,old,old,hit,2660,right
1,20,male,native,psychology,1,5,64,80,new,new,cr,1504,right
1,20,male,native,psychology,1,5,65,80,old,old,hit,1163,left
1,20,male,native,psychology,1,5,66,80,old,old,hit,1156,right
1,20,male,native,psychology,1,5,67,80,old,old,hit,2302,right
1,20,male,native,psychology,1,5,68,80,old,old,hit,2537,left
1,20,male,native,psychology,1,5,69,80,old,old,hit,1593,right
1,20,male,native,psychology,1,5,70,80,old,old,hit,976,left
1,20,male,native,psychology,1,5,71,80,old,old,hit,705,left
1,20,male,native,psychology,1,5,72,80,old,old,hit,798,left
1,20,male,native,psychology,1,5,73,80,old,old,hit,1079,right
1,20,male,native,psychology,1,5,74,80,old,old,hit,1316,left
1,20,male,native,psychology,1,5,75,80,old,old,hit,903,right
1,20,male,native,psychology,1,5,76,80,new,new,cr,2091,left
1,20,male,native,psychology,1,5,77,80,old,old,hit,2222,right
1,20,male,native,psychology,1,5,78,80,new,old,fa,2092,right
1,20,male,native,psychology,1,5,79,80,old,old,hit,2111,left
1,20,male,native,psychology,1,5,80,80,old,old,hit,801,right
1,20,male,native,psychology,1,5,81,80,old,old,hit,1034,left
1,20,male,native,psychology,1,5,82,80,old,old,hit,969,right
1,20,male,native,psychology,1,5,83,80,old,new,miss,2458,left
1,20,male,native,psychology,1,5,84,80,new,new,cr,1630,left
1,20,male,native,psychology,1,5,85,80,old,old,hit,900,left
1,20,male,native,psychology,1,5,86,80,new,new,cr,1801,left
1,20,male,native,psychology,1,5,87,80,old,old,hit,1048,right
1,20,male,native,psychology,1,5,88,80,old,old,hit,870,left
1,20,male,native,psychology,1,5,89,80,old,old,hit,844,left
1,20,male,native,psychology,1,5,90,80,new,new,cr,3282,right
1,20,male,native,psychology,1,5,91,80,old,old,hit,995,right
1,20,male,native,psychology,1,5,92,80,old,old,hit,1396,left
1,20,male,native,psychology,1,5,93,80,old,old,hit,947,right
1,20,male,native,psychology,1,5,94,80,old,old,hit,870,right
1,20,male,native,psychology,1,5,95,80,new,new,cr,3068,right
1,20,male,native,psychology,1,5,96,80,old,old,hit,1062,left
1,20,male,native,psychology,1,5,97,80,old,old,hit,1539,right
1,20,male,native,psychology,1,5,98,80,old,old,hit,829,right
1,20,male,native,psychology,1,5,99,80,old,old,hit,901,left
1,20,male,native,psychology,1,5,100,80,old,old,hit,1081,right
1,20,male,native,psychology,1,6,1,60,old,old,hit,2569,right
1,20,male,native,psychology,1,6,2,60,new,new,cr,1608,right
1,20,male,native,psychology,1,6,3,60,old,old,hit,1327,right
1,20,male,native,psychology,1,6,4,60,new,new,cr,1010,left
1,20,male,native,psychology,1,6,5,60,new,new,cr,1200,right
1,20,male,native,psychology,1,6,6,60,old,new,miss,1289,right
1,20,male,native,psychology,1,6,7,60,new,new,cr,2333,left
1,20,male,native,psychology,1,6,8,60,old,old,hit,902,left
1,20,male,native,psychology,1,6,9,60,new,new,cr,1067,right
1,20,male,native,psychology,1,6,10,60,old,old,hit,1704,right
1,20,male,native,psychology,1,6,11,60,old,old,hit,1357,right
1,20,male,native,psychology,1,6,12,60,new,new,cr,1757,right
1,20,male,native,psychology,1,6,13,60,old,old,hit,1070,left
1,20,male,native,psychology,1,6,14,60,old,old,hit,1724,right
1,20,male,native,psychology,1,6,15,60,old,old,hit,2638,left
1,20,male,native,psychology,1,6,16,60,old,old,hit,827,left
1,20,male,native,psychology,1,6,17,60,old,old,hit,578,left
1,20,male,native,psychology,1,6,18,60,new,new,cr,1347,left
1,20,male,native,psychology,1,6,19,60,old,old,hit,1525,left
1,20,male,native,psychology,1,6,20,60,new,new,cr,2064,left
1,20,male,native,psychology,1,6,21,60,old,old,hit,772,left
1,20,male,native,psychology,1,6,22,60,old,old,hit,1661,right
1,20,male,native,psychology,1,6,23,60,new,new,cr,1314,right
1,20,male,native,psychology,1,6,24,60,old,old,hit,1286,left
1,20,male,native,psychology,1,6,25,60,old,old,hit,809,left
1,20,male,native,psychology,1,6,26,60,new,new,cr,1586,left
1,20,male,native,psychology,1,6,27,60,old,old,hit,1130,right
1,20,male,native,psychology,1,6,28,60,old,old,hit,1749,right
1,20,male,native,psychology,1,6,29,60,new,new,cr,902,right
1,20,male,native,psychology,1,6,30,60,new,new,cr,1930,left
1,20,male,native,psychology,1,6,31,60,old,old,hit,1892,right
1,20,male,native,psychology,1,6,32,60,new,new,cr,1439,right
1,20,male,native,psychology,1,6,33,60,old,old,hit,2286,right
1,20,male,native,psychology,1,6,34,60,old,old,hit,1864,left
1,20,male,native,psychology,1,6,35,60,old,old,hit,1333,left
1,20,male,native,psychology,1,6,36,60,new,old,fa,2679,right
1,20,male,native,psychology,1,6,37,60,new,new,cr,1904,left
1,20,male,native,psychology,1,6,38,60,new,new,cr,3852,left
1,20,male,native,psychology,1,6,39,60,old,old,hit,1046,right
1,20,male,native,psychology,1,6,40,60,old,old,hit,1284,left
1,20,male,native,psychology,1,6,41,60,old,old,hit,873,right
1,20,male,native,psychology,1,6,42,60,old,old,hit,1038,left
1,20,male,native,psychology,1,6,43,60,new,new,cr,1053,left
1,20,male,native,psychology,1,6,44,60,old,old,hit,1514,left
1,20,male,native,psychology,1,6,45,60,new,new,cr,3270,right
1,20,male,native,psychology,1,6,46,60,old,old,hit,1528,right
1,20,male,native,psychology,1,6,47,60,old,old,hit,722,left
1,20,male,native,psychology,1,6,48,60,old,old,hit,1662,left
1,20,male,native,psychology,1,6,49,60,new,new,cr,1187,left
1,20,male,native,psychology,1,6,50,60,old,new,miss,1740,right
1,20,male,native,psychology,1,6,51,60,old,old,hit,1549,left
1,20,male,native,psychology,1,6,52,60,old,old,hit,1719,left
1,20,male,native,psychology,1,6,53,60,new,new,cr,1977,right
1,20,male,native,psychology,1,6,54,60,old,old,hit,1073,right
1,20,male,native,psychology,1,6,55,60,new,new,cr,1391,right
1,20,male,native,psychology,1,6,56,60,new,new,cr,4383,left
1,20,male,native,psychology,1,6,57,60,old,old,hit,963,right
1,20,male,native,psychology,1,6,58,60,old,old,hit,900,right
1,20,male,native,psychology,1,6,59,60,new,new,cr,2681,left
1,20,male,native,psychology,1,6,60,60,new,new,cr,1875,right
1,20,male,native,psychology,1,6,61,60,new,new,cr,1103,left
1,20,male,native,psychology,1,6,62,60,new,new,cr,1963,right
1,20,male,native,psychology,1,6,63,60,old,new,miss,1171,right
1,20,male,native,psychology,1,6,64,60,new,new,cr,1389,right
1,20,male,native,psychology,1,6,65,60,old,old,hit,1373,left
1,20,male,native,psychology,1,6,66,60,old,old,hit,1086,left
1,20,male,native,psychology,1,6,67,60,old,old,hit,923,left
1,20,male,native,psychology,1,6,68,60,old,old,hit,783,left
1,20,male,native,psychology,1,6,69,60,old,old,hit,1592,right
1,20,male,native,psychology,1,6,70,60,old,old,hit,2928,right
1,20,male,native,psychology,1,6,71,60,old,old,hit,3825,left
1,20,male,native,psychology,1,6,72,60,old,old,hit,1564,right
1,20,male,native,psychology,1,6,73,60,old,old,hit,1332,right
1,20,male,native,psychology,1,6,74,60,new,old,fa,1303,right
1,20,male,native,psychology,1,6,75,60,new,new,cr,2219,left
1,20,male,native,psychology,1,6,76,60,old,old,hit,1080,right
1,20,male,native,psychology,1,6,77,60,new,new,cr,1221,left
1,20,male,native,psychology,1,6,78,60,old,old,hit,1020,left
1,20,male,native,psychology,1,6,79,60,new,new,cr,2092,left
1,20,male,native,psychology,1,6,80,60,new,new,cr,2207,right
1,20,male,native,psychology,1,6,81,60,old,old,hit,1006,left
1,20,male,native,psychology,1,6,82,60,new,new,cr,1166,left
1,20,male,native,psychology,1,6,83,60,new,new,cr,1607,right
1,20,male,native,psychology,1,6,84,60,old,old,hit,1183,left
1,20,male,native,psychology,1,6,85,60,new,old,fa,1095,right
1,20,male,native,psychology,1,6,86,60,new,new,cr,1331,right
1,20,male,native,psychology,1,6,87,60,old,old,hit,1542,right
1,20,male,native,psychology,1,6,88,60,old,old,hit,1040,left
1,20,male,native,psychology,1,6,89,60,old,old,hit,1135,right
1,20,male,native,psychology,1,6,90,60,old,old,hit,1001,right
1,20,male,native,psychology,1,6,91,60,old,old,hit,1114,left
1,20,male,native,psychology,1,6,92,60,old,old,hit,981,right
1,20,male,native,psychology,1,6,93,60,old,old,hit,1414,left
1,20,male,native,psychology,1,6,94,60,new,new,cr,1701,left
1,20,male,native,psychology,1,6,95,60,old,new,miss,1896,right
1,20,male,native,psychology,1,6,96,60,old,old,hit,819,left
1,20,male,native,psychology,1,6,97,60,old,old,hit,1131,right
1,20,male,native,psychology,1,6,98,60,new,new,cr,2598,right
1,20,male,native,psychology,1,6,99,60,new,new,cr,2835,left
1,20,male,native,psychology,1,6,100,60,new,old,fa,1288,left
1,20,male,native,psychology,2,7,1,20,new,new,cr,3425,left
1,20,male,native,psychology,2,7,2,20,new,new,cr,1837,right
1,20,male,native,psychology,2,7,3,20,new,new,cr,1450,right
1,20,male,native,psychology,2,7,4,20,new,new,cr,1160,right
1,20,male,native,psychology,2,7,5,20,new,new,cr,1169,right
1,20,male,native,psychology,2,7,6,20,new,new,cr,907,right
1,20,male,native,psychology,2,7,7,20,old,old,hit,1391,right
1,20,male,native,psychology,2,7,8,20,new,new,cr,1071,left
1,20,male,native,psychology,2,7,9,20,old,old,hit,1165,left
1,20,male,native,psychology,2,7,10,20,old,old,hit,1798,right
1,20,male,native,psychology,2,7,11,20,new,new,cr,1413,left
1,20,male,native,psychology,2,7,12,20,new,new,cr,1060,left
1,20,male,native,psychology,2,7,13,20,new,new,cr,1314,right
1,20,male,native,psychology,2,7,14,20,new,new,cr,1205,left
1,20,male,native,psychology,2,7,15,20,new,new,cr,2157,right
1,20,male,native,psychology,2,7,16,20,new,new,cr,1117,left
1,20,male,native,psychology,2,7,17,20,new,new,cr,1129,left
1,20,male,native,psychology,2,7,18,20,new,new,cr,1411,left
1,20,male,native,psychology,2,7,19,20,new,new,cr,994,right
1,20,male,native,psychology,2,7,20,20,old,new,miss,1171,left
1,20,male,native,psychology,2,7,21,20,new,new,cr,2956,right
1,20,male,native,psychology,2,7,22,20,new,new,cr,1387,left
1,20,male,native,psychology,2,7,23,20,new,new,cr,1291,left
1,20,male,native,psychology,2,7,24,20,new,new,cr,960,left
1,20,male,native,psychology,2,7,25,20,new,new,cr,930,right
1,20,male,native,psychology,2,7,26,20,old,old,hit,2645,left
1,20,male,native,psychology,2,7,27,20,new,new,cr,1329,right
1,20,male,native,psychology,2,7,28,20,new,new,cr,1747,left
1,20,male,native,psychology,2,7,29,20,old,old,hit,4084,right
1,20,male,native,psychology,2,7,30,20,new,new,cr,1124,right
1,20,male,native,psychology,2,7,31,20,new,new,cr,1584,right
1,20,male,native,psychology,2,7,32,20,new,new,cr,1560,left
1,20,male,native,psychology,2,7,33,20,old,new,miss,1985,right
1,20,male,native,psychology,2,7,34,20,new,new,cr,1225,right
1,20,male,native,psychology,2,7,35,20,old,new,miss,2144,left
1,20,male,native,psychology,2,7,36,20,new,new,cr,3361,left
1,20,male,native,psychology,2,7,37,20,new,new,cr,2064,right
1,20,male,native,psychology,2,7,38,20,new,new,cr,2787,left
1,20,male,native,psychology,2,7,39,20,new,new,cr,1259,left
1,20,male,native,psychology,2,7,40,20,new,old,fa,2287,right
1,20,male,native,psychology,2,7,41,20,new,new,cr,1226,left
1,20,male,native,psychology,2,7,42,20,old,old,hit,1457,left
1,20,male,native,psychology,2,7,43,20,new,new,cr,1759,right
1,20,male,native,psychology,2,7,44,20,new,new,cr,1488,right
1,20,male,native,psychology,2,7,45,20,new,new,cr,1804,right
1,20,male,native,psychology,2,7,46,20,old,old,hit,1387,right
1,20,male,native,psychology,2,7,47,20,new,new,cr,1531,left
1,20,male,native,psychology,2,7,48,20,new,new,cr,981,right
1,20,male,native,psychology,2,7,49,20,old,old,hit,1462,left
1,20,male,native,psychology,2,7,50,20,old,old,hit,1635,right
1,20,male,native,psychology,2,7,51,20,new,new,cr,1689,right
1,20,male,native,psychology,2,7,52,20,new,new,cr,1997,left
1,20,male,native,psychology,2,7,53,20,new,new,cr,1908,right
1,20,male,native,psychology,2,7,54,20,new,new,cr,1534,left
1,20,male,native,psychology,2,7,55,20,new,new,cr,1144,left
1,20,male,native,psychology,2,7,56,20,new,new,cr,1139,right
1,20,male,native,psychology,2,7,57,20,new,new,cr,1101,left
1,20,male,native,psychology,2,7,58,20,new,new,cr,1209,left
1,20,male,native,psychology,2,7,59,20,new,new,cr,849,right
1,20,male,native,psychology,2,7,60,20,new,new,cr,1689,left
1,20,male,native,psychology,2,7,61,20,new,new,cr,1308,right
1,20,male,native,psychology,2,7,62,20,new,new,cr,1280,left
1,20,male,native,psychology,2,7,63,20,new,new,cr,964,right
1,20,male,native,psychology,2,7,64,20,old,old,hit,1237,right
1,20,male,native,psychology,2,7,65,20,new,new,cr,1004,right
1,20,male,native,psychology,2,7,66,20,new,new,cr,1068,left
1,20,male,native,psychology,2,7,67,20,new,new,cr,1113,left
1,20,male,native,psychology,2,7,68,20,new,new,cr,1077,right
1,20,male,native,psychology,2,7,69,20,new,new,cr,1362,left
1,20,male,native,psychology,2,7,70,20,new,new,cr,1155,left
1,20,male,native,psychology,2,7,71,20,new,new,cr,1021,left
1,20,male,native,psychology,2,7,72,20,new,new,cr,1022,right
1,20,male,native,psychology,2,7,73,20,old,old,hit,1132,right
1,20,male,native,psychology,2,7,74,20,new,new,cr,1319,right
1,20,male,native,psychology,2,7,75,20,new,new,cr,1370,right
1,20,male,native,psychology,2,7,76,20,new,new,cr,1179,left
1,20,male,native,psychology,2,7,77,20,old,old,hit,1491,left
1,20,male,native,psychology,2,7,78,20,new,new,cr,1376,right
1,20,male,native,psychology,2,7,79,20,new,new,cr,1233,left
1,20,male,native,psychology,2,7,80,20,old,new,miss,2567,left
1,20,male,native,psychology,2,7,81,20,new,new,cr,3334,left
1,20,male,native,psychology,2,7,82,20,old,old,hit,2150,left
1,20,male,native,psychology,2,7,83,20,new,new,cr,2503,left
1,20,male,native,psychology,2,7,84,20,new,new,cr,1176,left
1,20,male,native,psychology,2,7,85,20,old,old,hit,1089,right
1,20,male,native,psychology,2,7,86,20,new,new,cr,1198,left
1,20,male,native,psychology,2,7,87,20,new,new,cr,918,left
1,20,male,native,psychology,2,7,88,20,new,new,cr,923,left
1,20,male,native,psychology,2,7,89,20,new,new,cr,1790,right
1,20,male,native,psychology,2,7,90,20,new,new,cr,3917,left
1,20,male,native,psychology,2,7,91,20,new,new,cr,1316,left
1,20,male,native,psychology,2,7,92,20,old,old,hit,1031,right
1,20,male,native,psychology,2,7,93,20,new,new,cr,1494,right
1,20,male,native,psychology,2,7,94,20,new,new,cr,1362,right
1,20,male,native,psychology,2,7,95,20,new,new,cr,1475,right
1,20,male,native,psychology,2,7,96,20,new,new,cr,1215,right
1,20,male,native,psychology,2,7,97,20,new,new,cr,1271,right
1,20,male,native,psychology,2,7,98,20,old,old,hit,1660,left
1,20,male,native,psychology,2,7,99,20,new,new,cr,1281,right
1,20,male,native,psychology,2,7,100,20,new,new,cr,1686,right
1,20,male,native,psychology,2,8,1,60,old,old,hit,2335,left
1,20,male,native,psychology,2,8,2,60,old,old,hit,2536,right
1,20,male,native,psychology,2,8,3,60,new,new,cr,1352,left
1,20,male,native,psychology,2,8,4,60,old,old,hit,2666,right
1,20,male,native,psychology,2,8,5,60,old,old,hit,1413,left
1,20,male,native,psychology,2,8,6,60,old,old,hit,868,right
1,20,male,native,psychology,2,8,7,60,new,new,cr,1402,left
1,20,male,native,psychology,2,8,8,60,new,new,cr,2074,right
1,20,male,native,psychology,2,8,9,60,old,old,hit,1708,left
1,20,male,native,psychology,2,8,10,60,new,new,cr,1504,right
1,20,male,native,psychology,2,8,11,60,new,new,cr,1339,left
1,20,male,native,psychology,2,8,12,60,new,new,cr,1293,right
1,20,male,native,psychology,2,8,13,60,old,old,hit,1329,left
1,20,male,native,psychology,2,8,14,60,old,new,miss,1491,right
1,20,male,native,psychology,2,8,15,60,old,old,hit,1776,left
1,20,male,native,psychology,2,8,16,60,new,new,cr,1696,right
1,20,male,native,psychology,2,8,17,60,old,old,hit,931,right
1,20,male,native,psychology,2,8,18,60,old,old,hit,886,right
1,20,male,native,psychology,2,8,19,60,new,new,cr,1339,left
1,20,male,native,psychology,2,8,20,60,old,old,hit,1374,left
1,20,male,native,psychology,2,8,21,60,old,old,hit,1167,left
1,20,male,native,psychology,2,8,22,60,new,new,cr,1304,left
1,20,male,native,psychology,2,8,23,60,new,new,cr,1084,left
1,20,male,native,psychology,2,8,24,60,old,old,hit,1401,right
1,20,male,native,psychology,2,8,25,60,old,old,hit,1688,left
1,20,male,native,psychology,2,8,26,60,new,new,cr,1468,right
1,20,male,native,psychology,2,8,27,60,new,new,cr,2345,right
1,20,male,native,psychology,2,8,28,60,new,new,cr,1489,right
1,20,male,native,psychology,2,8,29,60,old,old,hit,1757,left
1,20,male,native,psychology,2,8,30,60,old,old,hit,1310,right
1,20,male,native,psychology,2,8,31,60,new,new,cr,1106,left
1,20,male,native,psychology,2,8,32,60,old,old,hit,1886,right
1,20,male,native,psychology,2,8,33,60,old,old,hit,1417,right
1,20,male,native,psychology,2,8,34,60,old,old,hit,1064,left
1,20,male,native,psychology,2,8,35,60,old,old,hit,886,right
1,20,male,native,psychology,2,8,36,60,new,new,cr,1755,right
1,20,male,native,psychology,2,8,37,60,old,old,hit,1196,left
1,20,male,native,psychology,2,8,38,60,new,new,cr,1540,left
1,20,male,native,psychology,2,8,39,60,old,old,hit,1374,right
1,20,male,native,psychology,2,8,40,60,old,old,hit,2079,left
1,20,male,native,psychology,2,8,41,60,new,new,cr,1186,left
1,20,male,native,psychology,2,8,42,60,old,old,hit,1035,right
1,20,male,native,psychology,2,8,43,60,new,new,cr,1274,right
1,20,male,native,psychology,2,8,44,60,old,old,hit,975,right
1,20,male,native,psychology,2,8,45,60,old,new,miss,1121,right
1,20,male,native,psychology,2,8,46,60,old,new,miss,2588,left
1,20,male,native,psychology,2,8,47,60,new,new,cr,2778,left
1,20,male,native,psychology,2,8,48,60,old,old,hit,1281,left
1,20,male,native,psychology,2,8,49,60,old,new,miss,1094,left
1,20,male,native,psychology,2,8,50,60,old,old,hit,3186,right
1,20,male,native,psychology,2,8,51,60,old,old,hit,1239,left
1,20,male,native,psychology,2,8,52,60,old,old,hit,1102,right
1,20,male,native,psychology,2,8,53,60,new,new,cr,2074,right
1,20,male,native,psychology,2,8,54,60,old,old,hit,1166,right
1,20,male,native,psychology,2,8,55,60,new,new,cr,1079,left
1,20,male,native,psychology,2,8,56,60,new,new,cr,1877,right
1,20,male,native,psychology,2,8,57,60,old,old,hit,1488,left
1,20,male,native,psychology,2,8,58,60,old,new,miss,1148,left
1,20,male,native,psychology,2,8,59,60,new,new,cr,3254,right
1,20,male,native,psychology,2,8,60,60,new,new,cr,937,left
1,20,male,native,psychology,2,8,61,60,old,old,hit,1020,right
1,20,male,native,psychology,2,8,62,60,new,new,cr,1259,right
1,20,male,native,psychology,2,8,63,60,old,old,hit,1921,right
1,20,male,native,psychology,2,8,64,60,new,new,cr,1035,right
1,20,male,native,psychology,2,8,65,60,old,old,hit,3610,left
1,20,male,native,psychology,2,8,66,60,old,old,hit,2142,left
1,20,male,native,psychology,2,8,67,60,old,new,miss,1631,right
1,20,male,native,psychology,2,8,68,60,old,old,hit,1093,left
1,20,male,native,psychology,2,8,69,60,new,new,cr,1153,left
1,20,male,native,psychology,2,8,70,60,new,new,cr,1357,left
1,20,male,native,psychology,2,8,71,60,old,old,hit,1421,right
1,20,male,native,psychology,2,8,72,60,old,old,hit,1053,left
1,20,male,native,psychology,2,8,73,60,new,new,cr,1194,left
1,20,male,native,psychology,2,8,74,60,old,old,hit,1570,right
1,20,male,native,psychology,2,8,75,60,new,new,cr,1771,left
1,20,male,native,psychology,2,8,76,60,new,new,cr,1291,right
1,20,male,native,psychology,2,8,77,60,old,old,hit,2848,right
1,20,male,native,psychology,2,8,78,60,new,new,cr,1571,right
1,20,male,native,psychology,2,8,79,60,old,old,hit,1004,left
1,20,male,native,psychology,2,8,80,60,old,old,hit,1164,left
1,20,male,native,psychology,2,8,81,60,new,new,cr,2390,left
1,20,male,native,psychology,2,8,82,60,old,old,hit,1132,right
1,20,male,native,psychology,2,8,83,60,old,old,hit,983,left
1,20,male,native,psychology,2,8,84,60,old,old,hit,1160,right
1,20,male,native,psychology,2,8,85,60,new,new,cr,1041,left
1,20,male,native,psychology,2,8,86,60,old,old,hit,1104,right
1,20,male,native,psychology,2,8,87,60,new,new,cr,2060,left
1,20,male,native,psychology,2,8,88,60,old,old,hit,6272,right
1,20,male,native,psychology,2,8,89,60,new,new,cr,1141,left
1,20,male,native,psychology,2,8,90,60,new,new,cr,1008,right
1,20,male,native,psychology,2,8,91,60,old,new,miss,1328,left
1,20,male,native,psychology,2,8,92,60,new,new,cr,1122,right
1,20,male,native,psychology,2,8,93,60,new,new,cr,1070,right
1,20,male,native,psychology,2,8,94,60,old,old,hit,1099,left
1,20,male,native,psychology,2,8,95,60,old,old,hit,1575,right
1,20,male,native,psychology,2,8,96,60,old,old,hit,3232,left
1,20,male,native,psychology,2,8,97,60,old,old,hit,1013,left
1,20,male,native,psychology,2,8,98,60,old,old,hit,5955,right
1,20,male,native,psychology,2,8,99,60,new,new,cr,1509,right
1,20,male,native,psychology,2,8,100,60,old,old,hit,1217,left
1,20,male,native,psychology,2,9,1,20,new,new,cr,1664,right
1,20,male,native,psychology,2,9,2,20,old,old,hit,1636,right
1,20,male,native,psychology,2,9,3,20,new,new,cr,1178,right
1,20,male,native,psychology,2,9,4,20,new,new,cr,1237,left
1,20,male,native,psychology,2,9,5,20,new,new,cr,857,left
1,20,male,native,psychology,2,9,6,20,new,new,cr,1152,right
1,20,male,native,psychology,2,9,7,20,new,new,cr,826,left
1,20,male,native,psychology,2,9,8,20,new,new,cr,1473,right
1,20,male,native,psychology,2,9,9,20,new,new,cr,1502,right
1,20,male,native,psychology,2,9,10,20,new,new,cr,1434,left
1,20,male,native,psychology,2,9,11,20,new,new,cr,1354,right
1,20,male,native,psychology,2,9,12,20,new,new,cr,1082,left
1,20,male,native,psychology,2,9,13,20,new,new,cr,3638,right
1,20,male,native,psychology,2,9,14,20,new,new,cr,1017,left
1,20,male,native,psychology,2,9,15,20,new,new,cr,1755,left
1,20,male,native,psychology,2,9,16,20,new,new,cr,3690,left
1,20,male,native,psychology,2,9,17,20,old,old,hit,1466,right
1,20,male,native,psychology,2,9,18,20,old,old,hit,1511,left
1,20,male,native,psychology,2,9,19,20,new,new,cr,1826,right
1,20,male,native,psychology,2,9,20,20,old,old,hit,1200,left
1,20,male,native,psychology,2,9,21,20,new,new,cr,1160,left
1,20,male,native,psychology,2,9,22,20,new,new,cr,1122,left
1,20,male,native,psychology,2,9,23,20,old,old,hit,1565,right
1,20,male,native,psychology,2,9,24,20,old,old,hit,1510,left
1,20,male,native,psychology,2,9,25,20,new,new,cr,1025,right
1,20,male,native,psychology,2,9,26,20,new,new,cr,1473,left
1,20,male,native,psychology,2,9,27,20,new,new,cr,3967,right
1,20,male,native,psychology,2,9,28,20,new,new,cr,1971,right
1,20,male,native,psychology,2,9,29,20,new,new,cr,3163,right
1,20,male,native,psychology,2,9,30,20,new,new,cr,1889,right
1,20,male,native,psychology,2,9,31,20,new,new,cr,1388,right
1,20,male,native,psychology,2,9,32,20,new,new,cr,989,left
1,20,male,native,psychology,2,9,33,20,new,new,cr,1486,right
1,20,male,native,psychology,2,9,34,20,new,new,cr,1642,left
1,20,male,native,psychology,2,9,35,20,old,new,miss,864,left
1,20,male,native,psychology,2,9,36,20,new,new,cr,2390,right
1,20,male,native,psychology,2,9,37,20,new,old,fa,2124,left
1,20,male,native,psychology,2,9,38,20,new,new,cr,1166,left
1,20,male,native,psychology,2,9,39,20,new,new,cr,1320,left
1,20,male,native,psychology,2,9,40,20,old,old,hit,1003,right
1,20,male,native,psychology,2,9,41,20,new,new,cr,1099,left
1,20,male,native,psychology,2,9,42,20,old,old,hit,1159,right
1,20,male,native,psychology,2,9,43,20,new,old,fa,2161,left
1,20,male,native,psychology,2,9,44,20,new,new,cr,1697,left
1,20,male,native,psychology,2,9,45,20,new,new,cr,2390,right
1,20,male,native,psychology,2,9,46,20,new,new,cr,1595,right
1,20,male,native,psychology,2,9,47,20,new,new,cr,1170,right
1,20,male,native,psychology,2,9,48,20,new,new,cr,1243,right
1,20,male,native,psychology,2,9,49,20,old,old,hit,1473,right
1,20,male,native,psychology,2,9,50,20,new,old,fa,1854,left
1,20,male,native,psychology,2,9,51,20,new,new,cr,1691,left
1,20,male,native,psychology,2,9,52,20,new,new,cr,1711,left
1,20,male,native,psychology,2,9,53,20,new,new,cr,1761,right
1,20,male,native,psychology,2,9,54,20,new,new,cr,3938,right
1,20,male,native,psychology,2,9,55,20,old,old,hit,2264,left
1,20,male,native,psychology,2,9,56,20,new,new,cr,1172,left
1,20,male,native,psychology,2,9,57,20,new,new,cr,4221,left
1,20,male,native,psychology,2,9,58,20,new,new,cr,1431,right
1,20,male,native,psychology,2,9,59,20,old,old,hit,998,left
1,20,male,native,psychology,2,9,60,20,new,new,cr,2918,right
1,20,male,native,psychology,2,9,61,20,new,new,cr,2647,right
1,20,male,native,psychology,2,9,62,20,old,new,miss,1122,left
1,20,male,native,psychology,2,9,63,20,new,new,cr,1198,left
1,20,male,native,psychology,2,9,64,20,new,new,cr,1029,left
1,20,male,native,psychology,2,9,65,20,new,new,cr,2388,left
1,20,male,native,psychology,2,9,66,20,old,old,hit,1163,left
1,20,male,native,psychology,2,9,67,20,new,new,cr,1284,left
1,20,male,native,psychology,2,9,68,20,new,new,cr,1177,left
1,20,male,native,psychology,2,9,69,20,new,new,cr,1090,right
1,20,male,native,psychology,2,9,70,20,new,new,cr,1214,right
1,20,male,native,psychology,2,9,71,20,new,new,cr,950,right
1,20,male,native,psychology,2,9,72,20,old,old,hit,1064,right
1,20,male,native,psychology,2,9,73,20,new,new,cr,918,right
1,20,male,native,psychology,2,9,74,20,new,new,cr,1193,right
1,20,male,native,psychology,2,9,75,20,new,new,cr,2481,left
1,20,male,native,psychology,2,9,76,20,new,new,cr,1572,left
1,20,male,native,psychology,2,9,77,20,old,new,miss,4509,right
1,20,male,native,psychology,2,9,78,20,new,new,cr,3739,right
1,20,male,native,psychology,2,9,79,20,new,new,cr,906,left
1,20,male,native,psychology,2,9,80,20,new,new,cr,1022,right
1,20,male,native,psychology,2,9,81,20,new,new,cr,1934,right
1,20,male,native,psychology,2,9,82,20,new,new,cr,1031,left
1,20,male,native,psychology,2,9,83,20,old,old,hit,1430,right
1,20,male,native,psychology,2,9,84,20,new,new,cr,1652,left
1,20,male,native,psychology,2,9,85,20,new,new,cr,1290,left
1,20,male,native,psychology,2,9,86,20,new,new,cr,1326,right
1,20,male,native,psychology,2,9,87,20,new,new,cr,1249,left
1,20,male,native,psychology,2,9,88,20,old,new,miss,1255,left
1,20,male,native,psychology,2,9,89,20,old,new,miss,2092,left
1,20,male,native,psychology,2,9,90,20,new,new,cr,1520,left
1,20,male,native,psychology,2,9,91,20,new,new,cr,1146,left
1,20,male,native,psychology,2,9,92,20,new,new,cr,1460,right
1,20,male,native,psychology,2,9,93,20,new,new,cr,1057,right
1,20,male,native,psychology,2,9,94,20,new,new,cr,1136,right
1,20,male,native,psychology,2,9,95,20,new,new,cr,1402,right
1,20,male,native,psychology,2,9,96,20,new,new,cr,1402,right
1,20,male,native,psychology,2,9,97,20,new,new,cr,3578,left
1,20,male,native,psychology,2,9,98,20,new,new,cr,1327,right
1,20,male,native,psychology,2,9,99,20,old,old,hit,1233,right
1,20,male,native,psychology,2,9,100,20,new,new,cr,1608,left
1,20,male,native,psychology,2,10,1,80,old,old,hit,1305,left
1,20,male,native,psychology,2,10,2,80,old,old,hit,1213,left
1,20,male,native,psychology,2,10,3,80,old,old,hit,1460,right
1,20,male,native,psychology,2,10,4,80,old,old,hit,1377,left
1,20,male,native,psychology,2,10,5,80,old,old,hit,2513,right
1,20,male,native,psychology,2,10,6,80,new,new,cr,1091,right
1,20,male,native,psychology,2,10,7,80,old,old,hit,863,right
1,20,male,native,psychology,2,10,8,80,new,new,cr,1157,left
1,20,male,native,psychology,2,10,9,80,old,old,hit,1055,right
1,20,male,native,psychology,2,10,10,80,new,new,cr,1934,left
1,20,male,native,psychology,2,10,11,80,new,new,cr,2295,right
1,20,male,native,psychology,2,10,12,80,old,old,hit,1009,right
1,20,male,native,psychology,2,10,13,80,old,old,hit,1473,right
1,20,male,native,psychology,2,10,14,80,old,old,hit,1486,right
1,20,male,native,psychology,2,10,15,80,old,old,hit,1098,right
1,20,male,native,psychology,2,10,16,80,old,old,hit,1126,left
1,20,male,native,psychology,2,10,17,80,old,old,hit,1825,left
1,20,male,native,psychology,2,10,18,80,old,old,hit,1263,left
1,20,male,native,psychology,2,10,19,80,old,old,hit,804,left
1,20,male,native,psychology,2,10,20,80,old,old,hit,685,left
1,20,male,native,psychology,2,10,21,80,old,old,hit,970,left
1,20,male,native,psychology,2,10,22,80,new,new,cr,1692,right
1,20,male,native,psychology,2,10,23,80,new,new,cr,3712,left
1,20,male,native,psychology,2,10,24,80,old,new,miss,4112,left
1,20,male,native,psychology,2,10,25,80,old,new,miss,1359,left
1,20,male,native,psychology,2,10,26,80,old,old,hit,2145,right
1,20,male,native,psychology,2,10,27,80,new,new,cr,1889,right
1,20,male,native,psychology,2,10,28,80,old,old,hit,1549,left
1,20,male,native,psychology,2,10,29,80,old,old,hit,1254,right
1,20,male,native,psychology,2,10,30,80,old,new,miss,1660,right
1,20,male,native,psychology,2,10,31,80,old,old,hit,4641,right
1,20,male,native,psychology,2,10,32,80,old,old,hit,1466,left
1,20,male,native,psychology,2,10,33,80,old,old,hit,3847,left
1,20,male,native,psychology,2,10,34,80,old,old,hit,1345,right
1,20,male,native,psychology,2,10,35,80,old,old,hit,755,right
1,20,male,native,psychology,2,10,36,80,old,old,hit,829,right
1,20,male,native,psychology,2,10,37,80,old,old,hit,1525,left
1,20,male,native,psychology,2,10,38,80,old,old,hit,927,left
1,20,male,native,psychology,2,10,39,80,new,new,cr,1890,left
1,20,male,native,psychology,2,10,40,80,old,old,hit,1902,right
1,20,male,native,psychology,2,10,41,80,old,old,hit,1097,right
1,20,male,native,psychology,2,10,42,80,new,new,cr,1621,left
1,20,male,native,psychology,2,10,43,80,old,old,hit,1324,left
1,20,male,native,psychology,2,10,44,80,new,new,cr,1615,right
1,20,male,native,psychology,2,10,45,80,old,old,hit,1621,left
1,20,male,native,psychology,2,10,46,80,old,old,hit,2476,left
1,20,male,native,psychology,2,10,47,80,old,old,hit,1151,left
1,20,male,native,psychology,2,10,48,80,old,old,hit,1113,right
1,20,male,native,psychology,2,10,49,80,old,old,hit,885,right
1,20,male,native,psychology,2,10,50,80,old,old,hit,1498,right
1,20,male,native,psychology,2,10,51,80,old,old,hit,1430,left
1,20,male,native,psychology,2,10,52,80,new,new,cr,1412,right
1,20,male,native,psychology,2,10,53,80,old,old,hit,1827,left
1,20,male,native,psychology,2,10,54,80,old,old,hit,1297,right
1,20,male,native,psychology,2,10,55,80,old,old,hit,981,left
1,20,male,native,psychology,2,10,56,80,old,old,hit,1798,right
1,20,male,native,psychology,2,10,57,80,new,new,cr,1189,left
1,20,male,native,psychology,2,10,58,80,old,old,hit,1645,right
1,20,male,native,psychology,2,10,59,80,old,old,hit,1043,right
1,20,male,native,psychology,2,10,60,80,old,old,hit,1185,left
1,20,male,native,psychology,2,10,61,80,old,old,hit,2345,right
1,20,male,native,psychology,2,10,62,80,new,new,cr,1330,left
1,20,male,native,psychology,2,10,63,80,old,old,hit,1316,left
1,20,male,native,psychology,2,10,64,80,new,new,cr,1671,right
1,20,male,native,psychology,2,10,65,80,old,old,hit,1980,left
1,20,male,native,psychology,2,10,66,80,old,old,hit,963,right
1,20,male,native,psychology,2,10,67,80,old,old,hit,1046,left
1,20,male,native,psychology,2,10,68,80,old,new,miss,1555,left
1,20,male,native,psychology,2,10,69,80,old,old,hit,2108,left
1,20,male,native,psychology,2,10,70,80,old,old,hit,832,right
1,20,male,native,psychology,2,10,71,80,old,old,hit,950,left
1,20,male,native,psychology,2,10,72,80,old,old,hit,1816,right
1,20,male,native,psychology,2,10,73,80,old,old,hit,1831,right
1,20,male,native,psychology,2,10,74,80,old,old,hit,1988,right
1,20,male,native,psychology,2,10,75,80,old,old,hit,1516,left
1,20,male,native,psychology,2,10,76,80,old,old,hit,950,right
1,20,male,native,psychology,2,10,77,80,new,new,cr,1273,left
1,20,male,native,psychology,2,10,78,80,new,old,fa,5839,right
1,20,male,native,psychology,2,10,79,80,old,old,hit,1141,left
1,20,male,native,psychology,2,10,80,80,old,old,hit,884,right
1,20,male,native,psychology,2,10,81,80,old,old,hit,917,right
1,20,male,native,psychology,2,10,82,80,old,old,hit,1097,left
1,20,male,native,psychology,2,10,83,80,old,old,hit,1797,left
1,20,male,native,psychology,2,10,84,80,old,new,miss,1204,left
1,20,male,native,psychology,2,10,85,80,old,old,hit,4140,right
1,20,male,native,psychology,2,10,86,80,old,old,hit,2442,left
1,20,male,native,psychology,2,10,87,80,old,old,hit,1006,right
1,20,male,native,psychology,2,10,88,80,old,old,hit,1951,left
1,20,male,native,psychology,2,10,89,80,old,new,miss,2327,left
1,20,male,native,psychology,2,10,90,80,new,new,cr,2913,left
1,20,male,native,psychology,2,10,91,80,old,old,hit,1010,right
1,20,male,native,psychology,2,10,92,80,old,old,hit,801,right
1,20,male,native,psychology,2,10,93,80,old,new,miss,2650,left
1,20,male,native,psychology,2,10,94,80,old,old,hit,933,right
1,20,male,native,psychology,2,10,95,80,new,new,cr,3448,right
1,20,male,native,psychology,2,10,96,80,old,old,hit,1043,left
1,20,male,native,psychology,2,10,97,80,old,old,hit,1745,right
1,20,male,native,psychology,2,10,98,80,new,new,cr,1058,left
1,20,male,native,psychology,2,10,99,80,old,old,hit,864,right
1,20,male,native,psychology,2,10,100,80,new,new,cr,1734,right
1,20,male,native,psychology,2,11,1,80,old,old,hit,1645,left
1,20,male,native,psychology,2,11,2,80,old,old,hit,1361,right
1,20,male,native,psychology,2,11,3,80,old,old,hit,1730,left
1,20,male,native,psychology,2,11,4,80,new,new,cr,1236,left
1,20,male,native,psychology,2,11,5,80,old,old,hit,2794,left
1,20,male,native,psychology,2,11,6,80,old,old,hit,1072,left
1,20,male,native,psychology,2,11,7,80,old,old,hit,1534,left
1,20,male,native,psychology,2,11,8,80,new,old,fa,2200,right
1,20,male,native,psychology,2,11,9,80,old,old,hit,1078,right
1,20,male,native,psychology,2,11,10,80,old,old,hit,1299,right
1,20,male,native,psychology,2,11,11,80,old,old,hit,871,right
1,20,male,native,psychology,2,11,12,80,old,old,hit,1309,left
1,20,male,native,psychology,2,11,13,80,old,old,hit,1490,right
1,20,male,native,psychology,2,11,14,80,old,old,hit,1037,left
1,20,male,native,psychology,2,11,15,80,old,old,hit,1372,right
1,20,male,native,psychology,2,11,16,80,new,new,cr,2125,right
1,20,male,native,psychology,2,11,17,80,old,old,hit,1375,right
1,20,male,native,psychology,2,11,18,80,new,new,cr,1712,left
1,20,male,native,psychology,2,11,19,80,old,old,hit,1106,left
1,20,male,native,psychology,2,11,20,80,old,old,hit,1230,right
1,20,male,native,psychology,2,11,21,80,old,old,hit,1173,left
1,20,male,native,psychology,2,11,22,80,new,old,fa,2126,left
1,20,male,native,psychology,2,11,23,80,old,old,hit,1728,right
1,20,male,native,psychology,2,11,24,80,old,old,hit,1170,left
1,20,male,native,psychology,2,11,25,80,old,old,hit,1067,left
1,20,male,native,psychology,2,11,26,80,old,old,hit,1129,right
1,20,male,native,psychology,2,11,27,80,old,old,hit,1571,right
1,20,male,native,psychology,2,11,28,80,new,new,cr,1932,left
1,20,male,native,psychology,2,11,29,80,old,new,miss,2134,left
1,20,male,native,psychology,2,11,30,80,old,old,hit,2359,left
1,20,male,native,psychology,2,11,31,80,old,old,hit,1423,right
1,20,male,native,psychology,2,11,32,80,old,old,hit,894,right
1,20,male,native,psychology,2,11,33,80,old,old,hit,1330,left
1,20,male,native,psychology,2,11,34,80,old,old,hit,1589,right
1,20,male,native,psychology,2,11,35,80,new,new,cr,2605,right
1,20,male,native,psychology,2,11,36,80,old,old,hit,970,right
1,20,male,native,psychology,2,11,37,80,old,old,hit,1068,right
1,20,male,native,psychology,2,11,38,80,old,old,hit,1386,left
1,20,male,native,psychology,2,11,39,80,new,new,cr,1130,right
1,20,male,native,psychology,2,11,40,80,old,new,miss,2597,left
1,20,male,native,psychology,2,11,41,80,old,old,hit,1827,right
1,20,male,native,psychology,2,11,42,80,old,new,miss,3696,right
1,20,male,native,psychology,2,11,43,80,new,new,cr,1313,right
1,20,male,native,psychology,2,11,44,80,old,old,hit,1508,left
1,20,male,native,psychology,2,11,45,80,old,old,hit,1535,left
1,20,male,native,psychology,2,11,46,80,old,new,miss,2153,right
1,20,male,native,psychology,2,11,47,80,old,old,hit,938,right
1,20,male,native,psychology,2,11,48,80,old,old,hit,3549,left
1,20,male,native,psychology,2,11,49,80,old,old,hit,1539,left
1,20,male,native,psychology,2,11,50,80,old,old,hit,909,left
1,20,male,native,psychology,2,11,51,80,old,old,hit,1825,right
1,20,male,native,psychology,2,11,52,80,new,new,cr,1839,right
1,20,male,native,psychology,2,11,53,80,old,old,hit,1517,left
1,20,male,native,psychology,2,11,54,80,new,new,cr,1927,left
1,20,male,native,psychology,2,11,55,80,old,old,hit,1265,right
1,20,male,native,psychology,2,11,56,80,old,old,hit,1158,left
1,20,male,native,psychology,2,11,57,80,new,old,fa,3056,left
1,20,male,native,psychology,2,11,58,80,old,old,hit,875,right
1,20,male,native,psychology,2,11,59,80,old,old,hit,993,right
1,20,male,native,psychology,2,11,60,80,old,old,hit,1105,left
1,20,male,native,psychology,2,11,61,80,old,old,hit,1293,right
1,20,male,native,psychology,2,11,62,80,new,new,cr,1220,left
1,20,male,native,psychology,2,11,63,80,old,old,hit,1432,right
1,20,male,native,psychology,2,11,64,80,new,new,cr,1367,left
1,20,male,native,psychology,2,11,65,80,old,old,hit,1368,right
1,20,male,native,psychology,2,11,66,80,new,new,cr,1545,right
1,20,male,native,psychology,2,11,67,80,old,old,hit,2786,left
1,20,male,native,psychology,2,11,68,80,old,old,hit,1272,left
1,20,male,native,psychology,2,11,69,80,old,old,hit,1086,right
1,20,male,native,psychology,2,11,70,80,old,old,hit,1194,right
1,20,male,native,psychology,2,11,71,80,new,new,cr,3906,right
1,20,male,native,psychology,2,11,72,80,old,old,hit,1306,left
1,20,male,native,psychology,2,11,73,80,old,old,hit,1182,left
1,20,male,native,psychology,2,11,74,80,old,old,hit,1110,right
1,20,male,native,psychology,2,11,75,80,old,old,hit,2116,left
1,20,male,native,psychology,2,11,76,80,old,old,hit,852,left
1,20,male,native,psychology,2,11,77,80,old,old,hit,1274,left
1,20,male,native,psychology,2,11,78,80,old,old,hit,865,left
1,20,male,native,psychology,2,11,79,80,old,old,hit,1316,right
1,20,male,native,psychology,2,11,80,80,old,old,hit,984,right
1,20,male,native,psychology,2,11,81,80,old,old,hit,1369,left
1,20,male,native,psychology,2,11,82,80,old,old,hit,1066,left
1,20,male,native,psychology,2,11,83,80,old,old,hit,1191,right
1,20,male,native,psychology,2,11,84,80,old,old,hit,1408,left
1,20,male,native,psychology,2,11,85,80,old,old,hit,943,right
1,20,male,native,psychology,2,11,86,80,old,old,hit,1394,right
1,20,male,native,psychology,2,11,87,80,old,old,hit,945,right
1,20,male,native,psychology,2,11,88,80,old,old,hit,852,right
1,20,male,native,psychology,2,11,89,80,old,new,miss,1138,right
1,20,male,native,psychology,2,11,90,80,new,new,cr,2229,left
1,20,male,native,psychology,2,11,91,80,old,old,hit,1954,left
1,20,male,native,psychology,2,11,92,80,old,old,hit,1147,left
1,20,male,native,psychology,2,11,93,80,old,old,hit,1141,left
1,20,male,native,psychology,2,11,94,80,new,new,cr,2304,right
1,20,male,native,psychology,2,11,95,80,old,old,hit,1130,right
1,20,male,native,psychology,2,11,96,80,old,old,hit,1317,right
1,20,male,native,psychology,2,11,97,80,new,new,cr,1864,left
1,20,male,native,psychology,2,11,98,80,old,old,hit,1188,left
1,20,male,native,psychology,2,11,99,80,old,old,hit,1101,left
1,20,male,native,psychology,2,11,100,80,new,new,cr,4505,right
1,20,male,native,psychology,2,12,1,40,new,new,cr,1318,left
1,20,male,native,psychology,2,12,2,40,new,new,cr,1177,right
1,20,male,native,psychology,2,12,3,40,old,old,hit,1106,left
1,20,male,native,psychology,2,12,4,40,old,old,hit,1390,left
1,20,male,native,psychology,2,12,5,40,old,new,miss,1502,left
1,20,male,native,psychology,2,12,6,40,new,new,cr,1914,left
1,20,male,native,psychology,2,12,7,40,new,new,cr,1268,right
1,20,male,native,psychology,2,12,8,40,new,new,cr,1193,right
1,20,male,native,psychology,2,12,9,40,new,new,cr,1697,right
1,20,male,native,psychology,2,12,10,40,new,new,cr,1220,right
1,20,male,native,psychology,2,12,11,40,old,old,hit,1164,right
1,20,male,native,psychology,2,12,12,40,old,old,hit,1205,left
1,20,male,native,psychology,2,12,13,40,old,old,hit,1005,right
1,20,male,native,psychology,2,12,14,40,new,new,cr,1165,left
1,20,male,native,psychology,2,12,15,40,old,old,hit,1047,right
1,20,male,native,psychology,2,12,16,40,new,new,cr,1269,left
1,20,male,native,psychology,2,12,17,40,new,new,cr,1178,left
1,20,male,native,psychology,2,12,18,40,new,new,cr,2483,left
1,20,male,native,psychology,2,12,19,40,new,new,cr,1525,right
1,20,male,native,psychology,2,12,20,40,old,old,hit,1314,right
1,20,male,native,psychology,2,12,21,40,new,new,cr,1715,right
1,20,male,native,psychology,2,12,22,40,old,old,hit,1542,right
1,20,male,native,psychology,2,12,23,40,old,old,hit,912,right
1,20,male,native,psychology,2,12,24,40,old,old,hit,1395,left
1,20,male,native,psychology,2,12,25,40,new,new,cr,1747,right
1,20,male,native,psychology,2,12,26,40,old,new,miss,2980,left
1,20,male,native,psychology,2,12,27,40,new,new,cr,1186,left
1,20,male,native,psychology,2,12,28,40,old,old,hit,1371,left
1,20,male,native,psychology,2,12,29,40,new,new,cr,1804,right
1,20,male,native,psychology,2,12,30,40,old,old,hit,1339,left
1,20,male,native,psychology,2,12,31,40,new,new,cr,1869,right
1,20,male,native,psychology,2,12,32,40,old,old,hit,3337,right
1,20,male,native,psychology,2,12,33,40,old,old,hit,3080,right
1,20,male,native,psychology,2,12,34,40,new,new,cr,1013,left
1,20,male,native,psychology,2,12,35,40,new,new,cr,1106,left
1,20,male,native,psychology,2,12,36,40,new,old,fa,3005,right
1,20,male,native,psychology,2,12,37,40,new,new,cr,1194,left
1,20,male,native,psychology,2,12,38,40,new,new,cr,1138,left
1,20,male,native,psychology,2,12,39,40,new,new,cr,973,left
1,20,male,native,psychology,2,12,40,40,new,new,cr,1535,right
1,20,male,native,psychology,2,12,41,40,new,new,cr,3497,right
1,20,male,native,psychology,2,12,42,40,new,new,cr,1281,right
1,20,male,native,psychology,2,12,43,40,old,old,hit,1397,left
1,20,male,native,psychology,2,12,44,40,new,new,cr,1365,right
1,20,male,native,psychology,2,12,45,40,new,new,cr,1382,left
1,20,male,native,psychology,2,12,46,40,old,old,hit,1350,right
1,20,male,native,psychology,2,12,47,40,new,new,cr,6840,right
1,20,male,native,psychology,2,12,48,40,new,new,cr,3014,left
1,20,male,native,psychology,2,12,49,40,old,old,hit,1026,left
1,20,male,native,psychology,2,12,50,40,old,old,hit,1681,right
1,20,male,native,psychology,2,12,51,40,new,new,cr,1525,left
1,20,male,native,psychology,2,12,52,40,new,new,cr,2272,left
1,20,male,native,psychology,2,12,53,40,new,new,cr,1563,right
1,20,male,native,psychology,2,12,54,40,new,new,cr,3636,left
1,20,male,native,psychology,2,12,55,40,old,old,hit,1111,right
1,20,male,native,psychology,2,12,56,40,old,old,hit,914,right
1,20,male,native,psychology,2,12,57,40,new,new,cr,1030,right
1,20,male,native,psychology,2,12,58,40,old,old,hit,1669,left
1,20,male,native,psychology,2,12,59,40,new,new,cr,1337,left
1,20,male,native,psychology,2,12,60,40,old,old,hit,1180,left
1,20,male,native,psychology,2,12,61,40,new,new,cr,2132,left
1,20,male,native,psychology,2,12,62,40,old,old,hit,1797,left
1,20,male,native,psychology,2,12,63,40,new,new,cr,1860,left
1,20,male,native,psychology,2,12,64,40,old,old,hit,897,right
1,20,male,native,psychology,2,12,65,40,old,old,hit,1221,left
1,20,male,native,psychology,2,12,66,40,new,new,cr,2205,right
1,20,male,native,psychology,2,12,67,40,new,new,cr,1115,left
1,20,male,native,psychology,2,12,68,40,new,old,fa,1286,right
1,20,male,native,psychology,2,12,69,40,new,new,cr,1067,left
1,20,male,native,psychology,2,12,70,40,old,old,hit,1448,left
1,20,male,native,psychology,2,12,71,40,old,old,hit,2582,right
1,20,male,native,psychology,2,12,72,40,old,old,hit,1044,left
1,20,male,native,psychology,2,12,73,40,new,new,cr,1074,left
1,20,male,native,psychology,2,12,74,40,new,new,cr,3552,right
1,20,male,native,psychology,2,12,75,40,new,new,cr,1734,right
1,20,male,native,psychology,2,12,76,40,old,old,hit,936,right
1,20,male,native,psychology,2,12,77,40,new,new,cr,1387,right
1,20,male,native,psychology,2,12,78,40,new,new,cr,1019,left
1,20,male,native,psychology,2,12,79,40,new,new,cr,1131,right
1,20,male,native,psychology,2,12,80,40,old,old,hit,1510,right
1,20,male,native,psychology,2,12,81,40,old,new,miss,1761,left
1,20,male,native,psychology,2,12,82,40,new,new,cr,1185,left
1,20,male,native,psychology,2,12,83,40,new,new,cr,1226,right
1,20,male,native,psychology,2,12,84,40,old,old,hit,945,left
1,20,male,native,psychology,2,12,85,40,new,new,cr,2147,right
1,20,male,native,psychology,2,12,86,40,old,old,hit,1316,right
1,20,male,native,psychology,2,12,87,40,new,new,cr,1671,left
1,20,male,native,psychology,2,12,88,40,new,new,cr,1451,right
1,20,male,native,psychology,2,12,89,40,new,new,cr,1369,left
1,20,male,native,psychology,2,12,90,40,old,old,hit,1146,right
1,20,male,native,psychology,2,12,91,40,old,new,miss,2484,left
1,20,male,native,psychology,2,12,92,40,new,new,cr,2214,left
1,20,male,native,psychology,2,12,93,40,old,old,hit,916,left
1,20,male,native,psychology,2,12,94,40,old,old,hit,1560,right
1,20,male,native,psychology,2,12,95,40,new,new,cr,1380,right
1,20,male,native,psychology,2,12,96,40,new,new,cr,1281,left
1,20,male,native,psychology,2,12,97,40,new,new,cr,1813,right
1,20,male,native,psychology,2,12,98,40,new,new,cr,1188,left
1,20,male,native,psychology,2,12,99,40,old,old,hit,2700,right
1,20,male,native,psychology,2,12,100,40,new,new,cr,1078,right
2,18,female,native,psychology,1,1,1,20,old,old,hit,6517,right
2,18,female,native,psychology,1,1,2,20,new,new,cr,1776,right
2,18,female,native,psychology,1,1,3,20,new,new,cr,1457,left
2,18,female,native,psychology,1,1,4,20,new,new,cr,2798,right
2,18,female,native,psychology,1,1,5,20,new,new,cr,1252,right
2,18,female,native,psychology,1,1,6,20,new,new,cr,1178,right
2,18,female,native,psychology,1,1,7,20,new,new,cr,1730,left
2,18,female,native,psychology,1,1,8,20,new,new,cr,1236,left
2,18,female,native,psychology,1,1,9,20,old,old,hit,1563,left
2,18,female,native,psychology,1,1,10,20,old,old,hit,2227,left
2,18,female,native,psychology,1,1,11,20,new,new,cr,1137,left
2,18,female,native,psychology,1,1,12,20,new,new,cr,1628,right
2,18,female,native,psychology,1,1,13,20,new,new,cr,2610,left
2,18,female,native,psychology,1,1,14,20,old,old,hit,1952,right
2,18,female,native,psychology,1,1,15,20,new,new,cr,1385,right
2,18,female,native,psychology,1,1,16,20,new,new,cr,2201,right
2,18,female,native,psychology,1,1,17,20,new,new,cr,1960,left
2,18,female,native,psychology,1,1,18,20,new,old,fa,4080,left
2,18,female,native,psychology,1,1,19,20,new,new,cr,1553,left
2,18,female,native,psychology,1,1,20,20,new,new,cr,3162,right
2,18,female,native,psychology,1,1,21,20,new,new,cr,1169,left
2,18,female,native,psychology,1,1,22,20,old,old,hit,1323,left
2,18,female,native,psychology,1,1,23,20,new,new,cr,1294,right
2,18,female,native,psychology,1,1,24,20,new,old,fa,3234,left
2,18,female,native,psychology,1,1,25,20,new,new,cr,1990,left
2,18,female,native,psychology,1,1,26,20,old,old,hit,1853,left
2,18,female,native,psychology,1,1,27,20,new,new,cr,1274,left
2,18,female,native,psychology,1,1,28,20,new,old,fa,2895,right
2,18,female,native,psychology,1,1,29,20,new,new,cr,6177,left
2,18,female,native,psychology,1,1,30,20,old,old,hit,1402,right
2,18,female,native,psychology,1,1,31,20,new,new,cr,2026,left
2,18,female,native,psychology,1,1,32,20,new,new,cr,1920,right
2,18,female,native,psychology,1,1,33,20,new,new,cr,4170,right
2,18,female,native,psychology,1,1,34,20,new,new,cr,1751,left
2,18,female,native,psychology,1,1,35,20,new,new,cr,1704,left
2,18,female,native,psychology,1,1,36,20,new,new,cr,1419,right
2,18,female,native,psychology,1,1,37,20,new,new,cr,4810,right
2,18,female,native,psychology,1,1,38,20,old,old,hit,2652,right
2,18,female,native,psychology,1,1,39,20,new,new,cr,1800,right
2,18,female,native,psychology,1,1,40,20,new,new,cr,1063,right
2,18,female,native,psychology,1,1,41,20,new,new,cr,2916,right
2,18,female,native,psychology,1,1,42,20,new,new,cr,1813,left
2,18,female,native,psychology,1,1,43,20,new,old,fa,2867,left
2,18,female,native,psychology,1,1,44,20,new,old,fa,5686,right
2,18,female,native,psychology,1,1,45,20,new,new,cr,3635,left
2,18,female,native,psychology,1,1,46,20,old,new,miss,3862,left
2,18,female,native,psychology,1,1,47,20,new,new,cr,1983,left
2,18,female,native,psychology,1,1,48,20,new,new,cr,3175,left
2,18,female,native,psychology,1,1,49,20,new,new,cr,2173,right
2,18,female,native,psychology,1,1,50,20,new,new,cr,1373,right
2,18,female,native,psychology,1,1,51,20,old,old,hit,1230,left
2,18,female,native,psychology,1,1,52,20,new,new,cr,3876,right
2,18,female,native,psychology,1,1,53,20,new,new,cr,4381,left
2,18,female,native,psychology,1,1,54,20,old,old,hit,1985,right
2,18,female,native,psychology,1,1,55,20,new,new,cr,1129,right
2,18,female,native,psychology,1,1,56,20,old,old,hit,1379,right
2,18,female,native,psychology,1,1,57,20,new,new,cr,1844,right
2,18,female,native,psychology,1,1,58,20,new,old,fa,3153,left
2,18,female,native,psychology,1,1,59,20,new,new,cr,6856,left
2,18,female,native,psychology,1,1,60,20,new,new,cr,2852,right
2,18,female,native,psychology,1,1,61,20,new,new,cr,2760,right
2,18,female,native,psychology,1,1,62,20,new,new,cr,4191,right
2,18,female,native,psychology,1,1,63,20,new,new,cr,2651,left
2,18,female,native,psychology,1,1,64,20,new,new,cr,2343,left
2,18,female,native,psychology,1,1,65,20,new,old,fa,1935,right
2,18,female,native,psychology,1,1,66,20,new,new,cr,1817,right
2,18,female,native,psychology,1,1,67,20,new,new,cr,5383,right
2,18,female,native,psychology,1,1,68,20,new,new,cr,1282,left
2,18,female,native,psychology,1,1,69,20,new,old,fa,2598,left
2,18,female,native,psychology,1,1,70,20,new,new,cr,3956,right
2,18,female,native,psychology,1,1,71,20,old,new,miss,5658,left
2,18,female,native,psychology,1,1,72,20,new,new,cr,3656,left
2,18,female,native,psychology,1,1,73,20,old,old,hit,1530,left
2,18,female,native,psychology,1,1,74,20,new,new,cr,1300,right
2,18,female,native,psychology,1,1,75,20,new,new,cr,1240,left
2,18,female,native,psychology,1,1,76,20,old,old,hit,1455,right
2,18,female,native,psychology,1,1,77,20,old,old,hit,2412,right
2,18,female,native,psychology,1,1,78,20,new,new,cr,1346,left
2,18,female,native,psychology,1,1,79,20,new,old,fa,5108,left
2,18,female,native,psychology,1,1,80,20,new,old,fa,3482,right
2,18,female,native,psychology,1,1,81,20,new,new,cr,1667,left
2,18,female,native,psychology,1,1,82,20,new,new,cr,2247,right
2,18,female,native,psychology,1,1,83,20,old,old,hit,1908,left
2,18,female,native,psychology,1,1,84,20,new,new,cr,1134,left
2,18,female,native,psychology,1,1,85,20,new,new,cr,3353,right
2,18,female,native,psychology,1,1,86,20,old,new,miss,3784,right
2,18,female,native,psychology,1,1,87,20,new,new,cr,2868,right
2,18,female,native,psychology,1,1,88,20,new,new,cr,8071,left
2,18,female,native,psychology,1,1,89,20,new,new,cr,4450,right
2,18,female,native,psychology,1,1,90,20,new,new,cr,4402,right
2,18,female,native,psychology,1,1,91,20,new,new,cr,1125,left
2,18,female,native,psychology,1,1,92,20,new,old,fa,4193,left
2,18,female,native,psychology,1,1,93,20,old,new,miss,3436,right
2,18,female,native,psychology,1,1,94,20,new,new,cr,7495,right
2,18,female,native,psychology,1,1,95,20,old,old,hit,2586,left
2,18,female,native,psychology,1,1,96,20,new,new,cr,1800,right
2,18,female,native,psychology,1,1,97,20,new,new,cr,1383,left
2,18,female,native,psychology,1,1,98,20,new,new,cr,1576,left
2,18,female,native,psychology,1,1,99,20,new,new,cr,1200,right
2,18,female,native,psychology,1,1,100,20,new,new,cr,1352,left
2,18,female,native,psychology,1,2,1,20,old,old,hit,1571,right
2,18,female,native,psychology,1,2,2,20,new,new,cr,1388,left
2,18,female,native,psychology,1,2,3,20,old,old,hit,2012,left
2,18,female,native,psychology,1,2,4,20,new,new,cr,1122,left
2,18,female,native,psychology,1,2,5,20,old,old,hit,2558,right
2,18,female,native,psychology,1,2,6,20,new,new,cr,1149,right
2,18,female,native,psychology,1,2,7,20,new,new,cr,3303,right
2,18,female,native,psychology,1,2,8,20,new,new,cr,2216,left
2,18,female,native,psychology,1,2,9,20,new,new,cr,1270,right
2,18,female,native,psychology,1,2,10,20,new,new,cr,3499,left
2,18,female,native,psychology,1,2,11,20,new,new,cr,1251,left
2,18,female,native,psychology,1,2,12,20,new,new,cr,1065,left
2,18,female,native,psychology,1,2,13,20,new,new,cr,951,right
2,18,female,native,psychology,1,2,14,20,new,new,cr,2825,right
2,18,female,native,psychology,1,2,15,20,new,new,cr,2414,right
2,18,female,native,psychology,1,2,16,20,new,new,cr,1603,right
2,18,female,native,psychology,1,2,17,20,new,new,cr,1322,left
2,18,female,native,psychology,1,2,18,20,new,new,cr,861,right
2,18,female,native,psychology,1,2,19,20,old,old,hit,1299,left
2,18,female,native,psychology,1,2,20,20,new,new,cr,1031,left
2,18,female,native,psychology,1,2,21,20,new,new,cr,838,right
2,18,female,native,psychology,1,2,22,20,new,new,cr,1245,right
2,18,female,native,psychology,1,2,23,20,new,new,cr,803,right
2,18,female,native,psychology,1,2,24,20,new,new,cr,3404,left
2,18,female,native,psychology,1,2,25,20,new,new,cr,2088,left
2,18,female,native,psychology,1,2,26,20,new,new,cr,811,right
2,18,female,native,psychology,1,2,27,20,new,new,cr,931,left
2,18,female,native,psychology,1,2,28,20,old,old,hit,2918,left
2,18,female,native,psychology,1,2,29,20,new,new,cr,1015,right
2,18,female,native,psychology,1,2,30,20,new,new,cr,1030,left
2,18,female,native,psychology,1,2,31,20,new,new,cr,853,right
2,18,female,native,psychology,1,2,32,20,new,new,cr,1084,left
2,18,female,native,psychology,1,2,33,20,new,new,cr,2697,left
2,18,female,native,psychology,1,2,34,20,new,new,cr,2434,right
2,18,female,native,psychology,1,2,35,20,new,new,cr,1287,left
2,18,female,native,psychology,1,2,36,20,old,old,hit,1515,left
2,18,female,native,psychology,1,2,37,20,old,old,hit,1174,right
2,18,female,native,psychology,1,2,38,20,new,new,cr,2624,right
2,18,female,native,psychology,1,2,39,20,old,old,hit,1597,right
2,18,female,native,psychology,1,2,40,20,new,new,cr,1076,left
2,18,female,native,psychology,1,2,41,20,old,old,hit,1473,left
2,18,female,native,psychology,1,2,42,20,new,new,cr,1022,right
2,18,female,native,psychology,1,2,43,20,new,new,cr,1518,right
2,18,female,native,psychology,1,2,44,20,new,new,cr,4745,left
2,18,female,native,psychology,1,2,45,20,new,new,cr,1342,right
2,18,female,native,psychology,1,2,46,20,new,new,cr,1040,left
2,18,female,native,psychology,1,2,47,20,old,old,hit,2367,right
2,18,female,native,psychology,1,2,48,20,old,old,hit,1046,left
2,18,female,native,psychology,1,2,49,20,old,old,hit,1189,right
2,18,female,native,psychology,1,2,50,20,new,new,cr,1853,left
2,18,female,native,psychology,1,2,51,20,new,new,cr,3066,left
2,18,female,native,psychology,1,2,52,20,new,new,cr,1348,left
2,18,female,native,psychology,1,2,53,20,new,new,cr,1622,right
2,18,female,native,psychology,1,2,54,20,new,new,cr,989,left
2,18,female,native,psychology,1,2,55,20,new,new,cr,4702,left
2,18,female,native,psychology,1,2,56,20,new,new,cr,2036,left
2,18,female,native,psychology,1,2,57,20,new,new,cr,3753,right
2,18,female,native,psychology,1,2,58,20,new,old,fa,1287,right
2,18,female,native,psychology,1,2,59,20,new,old,fa,3564,right
2,18,female,native,psychology,1,2,60,20,new,new,cr,1698,right
2,18,female,native,psychology,1,2,61,20,old,old,hit,6581,right
2,18,female,native,psychology,1,2,62,20,new,new,cr,1198,left
2,18,female,native,psychology,1,2,63,20,new,new,cr,2086,right
2,18,female,native,psychology,1,2,64,20,new,new,cr,2569,left
2,18,female,native,psychology,1,2,65,20,new,new,cr,2296,left
2,18,female,native,psychology,1,2,66,20,old,new,miss,4418,left
2,18,female,native,psychology,1,2,67,20,new,new,cr,1764,left
2,18,female,native,psychology,1,2,68,20,old,old,hit,2053,left
2,18,female,native,psychology,1,2,69,20,new,new,cr,5081,right
2,18,female,native,psychology,1,2,70,20,new,new,cr,1264,right
2,18,female,native,psychology,1,2,71,20,new,new,cr,854,left
2,18,female,native,psychology,1,2,72,20,old,new,miss,908,right
2,18,female,native,psychology,1,2,73,20,new,new,cr,2848,left
2,18,female,native,psychology,1,2,74,20,new,old,fa,3524,right
2,18,female,native,psychology,1,2,75,20,new,new,cr,1371,right
2,18,female,native,psychology,1,2,76,20,new,new,cr,3404,right
2,18,female,native,psychology,1,2,77,20,new,new,cr,1513,right
2,18,female,native,psychology,1,2,78,20,new,new,cr,1140,left
2,18,female,native,psychology,1,2,79,20,new,new,cr,862,right
2,18,female,native,psychology,1,2,80,20,new,new,cr,1124,left
2,18,female,native,psychology,1,2,81,20,old,old,hit,1248,right
2,18,female,native,psychology,1,2,82,20,old,old,hit,1238,right
2,18,female,native,psychology,1,2,83,20,new,new,cr,1420,left
2,18,female,native,psychology,1,2,84,20,new,old,fa,1403,left
2,18,female,native,psychology,1,2,85,20,old,old,hit,2011,left
2,18,female,native,psychology,1,2,86,20,old,old,hit,1745,left
2,18,female,native,psychology,1,2,87,20,new,new,cr,1106,right
2,18,female,native,psychology,1,2,88,20,new,new,cr,3055,right
2,18,female,native,psychology,1,2,89,20,new,new,cr,2106,left
2,18,female,native,psychology,1,2,90,20,new,new,cr,1068,right
2,18,female,native,psychology,1,2,91,20,new,new,cr,1066,right
2,18,female,native,psychology,1,2,92,20,new,old,fa,3975,left
2,18,female,native,psychology,1,2,93,20,new,new,cr,1356,right
2,18,female,native,psychology,1,2,94,20,new,new,cr,1950,left
2,18,female,native,psychology,1,2,95,20,new,new,cr,4198,left
2,18,female,native,psychology,1,2,96,20,new,new,cr,1362,left
2,18,female,native,psychology,1,2,97,20,new,old,fa,1699,left
2,18,female,native,psychology,1,2,98,20,new,new,cr,1990,right
2,18,female,native,psychology,1,2,99,20,new,new,cr,5614,right
2,18,female,native,psychology,1,2,100,20,new,new,cr,1007,right
2,18,female,native,psychology,1,3,1,40,new,new,cr,3472,left
2,18,female,native,psychology,1,3,2,40,new,new,cr,2361,left
2,18,female,native,psychology,1,3,3,40,new,new,cr,1986,left
2,18,female,native,psychology,1,3,4,40,old,old,hit,1545,right
2,18,female,native,psychology,1,3,5,40,new,new,cr,1410,right
2,18,female,native,psychology,1,3,6,40,new,new,cr,1330,left
2,18,female,native,psychology,1,3,7,40,new,new,cr,1140,right
2,18,female,native,psychology,1,3,8,40,old,old,hit,1919,left
2,18,female,native,psychology,1,3,9,40,old,old,hit,2249,right
2,18,female,native,psychology,1,3,10,40,old,old,hit,1558,right
2,18,female,native,psychology,1,3,11,40,old,old,hit,1551,left
2,18,female,native,psychology,1,3,12,40,new,new,cr,1480,right
2,18,female,native,psychology,1,3,13,40,old,old,hit,1925,right
2,18,female,native,psychology,1,3,14,40,new,new,cr,1135,right
2,18,female,native,psychology,1,3,15,40,new,new,cr,2393,left
2,18,female,native,psychology,1,3,16,40,new,new,cr,1312,right
2,18,female,native,psychology,1,3,17,40,old,old,hit,1763,left
2,18,female,native,psychology,1,3,18,40,new,new,cr,1156,right
2,18,female,native,psychology,1,3,19,40,new,new,cr,1486,left
2,18,female,native,psychology,1,3,20,40,old,old,hit,1546,left
2,18,female,native,psychology,1,3,21,40,old,old,hit,1171,right
2,18,female,native,psychology,1,3,22,40,old,old,hit,1085,left
2,18,female,native,psychology,1,3,23,40,new,new,cr,5433,left
2,18,female,native,psychology,1,3,24,40,new,new,cr,2162,left
2,18,female,native,psychology,1,3,25,40,new,new,cr,3858,right
2,18,female,native,psychology,1,3,26,40,new,new,cr,1180,left
2,18,female,native,psychology,1,3,27,40,new,new,cr,1173,right
2,18,female,native,psychology,1,3,28,40,old,old,hit,1838,left
2,18,female,native,psychology,1,3,29,40,new,new,cr,1964,right
2,18,female,native,psychology,1,3,30,40,new,new,cr,2548,right
2,18,female,native,psychology,1,3,31,40,new,new,cr,2724,left
2,18,female,native,psychology,1,3,32,40,old,old,hit,924,left
2,18,female,native,psychology,1,3,33,40,old,old,hit,1056,right
2,18,female,native,psychology,1,3,34,40,old,old,hit,910,right
2,18,female,native,psychology,1,3,35,40,new,new,cr,1474,right
2,18,female,native,psychology,1,3,36,40,old,old,hit,1039,right
2,18,female,native,psychology,1,3,37,40,old,old,hit,1086,left
2,18,female,native,psychology,1,3,38,40,new,new,cr,1035,left
2,18,female,native,psychology,1,3,39,40,new,new,cr,2346,right
2,18,female,native,psychology,1,3,40,40,new,new,cr,1266,left
2,18,female,native,psychology,1,3,41,40,old,old,hit,4375,left
2,18,female,native,psychology,1,3,42,40,new,new,cr,1627,right
2,18,female,native,psychology,1,3,43,40,old,old,hit,1154,left
2,18,female,native,psychology,1,3,44,40,new,new,cr,1036,left
2,18,female,native,psychology,1,3,45,40,old,old,hit,1115,left
2,18,female,native,psychology,1,3,46,40,new,new,cr,1638,left
2,18,female,native,psychology,1,3,47,40,new,old,fa,2252,left
2,18,female,native,psychology,1,3,48,40,new,new,cr,2408,right
2,18,female,native,psychology,1,3,49,40,old,old,hit,1006,right
2,18,female,native,psychology,1,3,50,40,old,old,hit,2879,right
2,18,female,native,psychology,1,3,51,40,old,old,hit,865,right
2,18,female,native,psychology,1,3,52,40,new,new,cr,1079,right
2,18,female,native,psychology,1,3,53,40,old,old,hit,1268,right
2,18,female,native,psychology,1,3,54,40,new,new,cr,921,right
2,18,female,native,psychology,1,3,55,40,old,new,miss,2877,left
2,18,female,native,psychology,1,3,56,40,new,new,cr,1744,left
2,18,female,native,psychology,1,3,57,40,new,new,cr,1105,right
2,18,female,native,psychology,1,3,58,40,new,new,cr,2429,right
2,18,female,native,psychology,1,3,59,40,new,old,fa,1666,left
2,18,female,native,psychology,1,3,60,40,new,new,cr,1303,left
2,18,female,native,psychology,1,3,61,40,new,new,cr,2410,right
2,18,female,native,psychology,1,3,62,40,old,old,hit,1392,left
2,18,female,native,psychology,1,3,63,40,new,new,cr,1889,left
2,18,female,native,psychology,1,3,64,40,new,new,cr,1388,left
2,18,female,native,psychology,1,3,65,40,old,old,hit,1133,right
2,18,female,native,psychology,1,3,66,40,new,old,fa,2295,right
2,18,female,native,psychology,1,3,67,40,new,new,cr,3330,right
2,18,female,native,psychology,1,3,68,40,old,old,hit,2626,right
2,18,female,native,psychology,1,3,69,40,old,new,miss,2447,left
2,18,female,native,psychology,1,3,70,40,old,new,miss,2259,right
2,18,female,native,psychology,1,3,71,40,old,old,hit,1967,left
2,18,female,native,psychology,1,3,72,40,new,new,cr,1607,left
2,18,female,native,psychology,1,3,73,40,new,new,cr,1375,left
2,18,female,native,psychology,1,3,74,40,new,new,cr,1728,right
2,18,female,native,psychology,1,3,75,40,new,new,cr,2162,left
2,18,female,native,psychology,1,3,76,40,new,old,fa,1410,left
2,18,female,native,psychology,1,3,77,40,new,new,cr,1314,right
2,18,female,native,psychology,1,3,78,40,new,new,cr,1173,right
2,18,female,native,psychology,1,3,79,40,old,old,hit,2766,right
2,18,female,native,psychology,1,3,80,40,old,new,miss,2069,left
2,18,female,native,psychology,1,3,81,40,new,new,cr,1865,right
2,18,female,native,psychology,1,3,82,40,old,new,miss,4565,left
2,18,female,native,psychology,1,3,83,40,old,old,hit,1298,right
2,18,female,native,psychology,1,3,84,40,old,old,hit,1877,right
2,18,female,native,psychology,1,3,85,40,old,old,hit,2066,right
2,18,female,native,psychology,1,3,86,40,new,old,fa,3478,left
2,18,female,native,psychology,1,3,87,40,new,new,cr,2351,left
2,18,female,native,psychology,1,3,88,40,old,old,hit,3271,right
2,18,female,native,psychology,1,3,89,40,new,new,cr,1337,left
2,18,female,native,psychology,1,3,90,40,new,new,cr,1180,right
2,18,female,native,psychology,1,3,91,40,old,old,hit,4132,left
2,18,female,native,psychology,1,3,92,40,new,new,cr,1106,left
2,18,female,native,psychology,1,3,93,40,old,old,hit,2302,left
2,18,female,native,psychology,1,3,94,40,new,old,fa,2217,right
2,18,female,native,psychology,1,3,95,40,new,new,cr,2182,right
2,18,female,native,psychology,1,3,96,40,new,new,cr,2149,right
2,18,female,native,psychology,1,3,97,40,new,new,cr,1382,left
2,18,female,native,psychology,1,3,98,40,new,new,cr,1814,right
2,18,female,native,psychology,1,3,99,40,new,new,cr,3428,left
2,18,female,native,psychology,1,3,100,40,old,old,hit,1168,left
2,18,female,native,psychology,1,4,1,80,old,old,hit,1868,left
2,18,female,native,psychology,1,4,2,80,old,new,miss,2009,left
2,18,female,native,psychology,1,4,3,80,old,old,hit,1471,left
2,18,female,native,psychology,1,4,4,80,old,old,hit,1164,right
2,18,female,native,psychology,1,4,5,80,old,old,hit,886,right
2,18,female,native,psychology,1,4,6,80,old,new,miss,1819,right
2,18,female,native,psychology,1,4,7,80,old,old,hit,1657,right
2,18,female,native,psychology,1,4,8,80,old,old,hit,1182,right
2,18,female,native,psychology,1,4,9,80,old,old,hit,1159,left
2,18,female,native,psychology,1,4,10,80,new,new,cr,1569,right
2,18,female,native,psychology,1,4,11,80,old,new,miss,2698,right
2,18,female,native,psychology,1,4,12,80,new,new,cr,1379,left
2,18,female,native,psychology,1,4,13,80,new,new,cr,2132,right
2,18,female,native,psychology,1,4,14,80,old,old,hit,1621,left
2,18,female,native,psychology,1,4,15,80,old,old,hit,1243,left
2,18,female,native,psychology,1,4,16,80,new,new,cr,1266,left
2,18,female,native,psychology,1,4,17,80,old,old,hit,1863,right
2,18,female,native,psychology,1,4,18,80,old,old,hit,3107,right
2,18,female,native,psychology,1,4,19,80,old,old,hit,1308,left
2,18,female,native,psychology,1,4,20,80,old,new,miss,1280,left
2,18,female,native,psychology,1,4,21,80,old,old,hit,1141,right
2,18,female,native,psychology,1,4,22,80,old,old,hit,1103,right
2,18,female,native,psychology,1,4,23,80,old,old,hit,923,right
2,18,female,native,psychology,1,4,24,80,new,new,cr,1151,right
2,18,female,native,psychology,1,4,25,80,new,old,fa,5433,right
2,18,female,native,psychology,1,4,26,80,old,old,hit,3330,left
2,18,female,native,psychology,1,4,27,80,old,old,hit,946,left
2,18,female,native,psychology,1,4,28,80,old,old,hit,1284,left
2,18,female,native,psychology,1,4,29,80,old,old,hit,2520,left
2,18,female,native,psychology,1,4,30,80,old,new,miss,1338,right
2,18,female,native,psychology,1,4,31,80,old,new,miss,2300,left
2,18,female,native,psychology,1,4,32,80,old,old,hit,3286,left
2,18,female,native,psychology,1,4,33,80,old,old,hit,888,left
2,18,female,native,psychology,1,4,34,80,new,old,fa,2909,left
2,18,female,native,psychology,1,4,35,80,old,old,hit,3406,right
2,18,female,native,psychology,1,4,36,80,old,old,hit,1802,right
2,18,female,native,psychology,1,4,37,80,old,old,hit,1033,left
2,18,female,native,psychology,1,4,38,80,old,new,miss,1784,right
2,18,female,native,psychology,1,4,39,80,new,old,fa,2104,left
2,18,female,native,psychology,1,4,40,80,old,new,miss,4266,right
2,18,female,native,psychology,1,4,41,80,old,old,hit,1267,right
2,18,female,native,psychology,1,4,42,80,old,old,hit,1096,right
2,18,female,native,psychology,1,4,43,80,old,old,hit,900,right
2,18,female,native,psychology,1,4,44,80,new,new,cr,1657,left
2,18,female,native,psychology,1,4,45,80,old,new,miss,2542,left
2,18,female,native,psychology,1,4,46,80,old,old,hit,1822,right
2,18,female,native,psychology,1,4,47,80,old,old,hit,1709,right
2,18,female,native,psychology,1,4,48,80,old,old,hit,1120,left
2,18,female,native,psychology,1,4,49,80,old,old,hit,2059,right
2,18,female,native,psychology,1,4,50,80,old,new,miss,1184,left
2,18,female,native,psychology,1,4,51,80,old,old,hit,3784,left
2,18,female,native,psychology,1,4,52,80,old,old,hit,1045,left
2,18,female,native,psychology,1,4,53,80,old,old,hit,1187,left
2,18,female,native,psychology,1,4,54,80,new,new,cr,1180,right
2,18,female,native,psychology,1,4,55,80,old,old,hit,1556,left
2,18,female,native,psychology,1,4,56,80,old,new,miss,5310,left
2,18,female,native,psychology,1,4,57,80,new,new,cr,1147,right
2,18,female,native,psychology,1,4,58,80,old,old,hit,1845,right
2,18,female,native,psychology,1,4,59,80,old,old,hit,1522,right
2,18,female,native,psychology,1,4,60,80,new,old,fa,1117,left
2,18,female,native,psychology,1,4,61,80,new,old,fa,1400,right
2,18,female,native,psychology,1,4,62,80,old,old,hit,2088,left
2,18,female,native,psychology,1,4,63,80,old,old,hit,3355,right
2,18,female,native,psychology,1,4,64,80,old,old,hit,1722,left
2,18,female,native,psychology,1,4,65,80,old,old,hit,1340,left
2,18,female,native,psychology,1,4,66,80,new,new,cr,1183,right
2,18,female,native,psychology,1,4,67,80,old,old,hit,2631,left
2,18,female,native,psychology,1,4,68,80,new,new,cr,1236,left
2,18,female,native,psychology,1,4,69,80,old,old,hit,986,left
2,18,female,native,psychology,1,4,70,80,old,old,hit,2843,left
2,18,female,native,psychology,1,4,71,80,old,new,miss,1311,right
2,18,female,native,psychology,1,4,72,80,old,new,miss,1890,right
2,18,female,native,psychology,1,4,73,80,old,old,hit,1070,right
2,18,female,native,psychology,1,4,74,80,old,old,hit,955,right
2,18,female,native,psychology,1,4,75,80,new,old,fa,1326,left
2,18,female,native,psychology,1,4,76,80,old,old,hit,1377,right
2,18,female,native,psychology,1,4,77,80,old,old,hit,2194,left
2,18,female,native,psychology,1,4,78,80,old,old,hit,1489,right
2,18,female,native,psychology,1,4,79,80,old,old,hit,1405,right
2,18,female,native,psychology,1,4,80,80,old,old,hit,1917,left
2,18,female,native,psychology,1,4,81,80,old,old,hit,823,left
2,18,female,native,psychology,1,4,82,80,old,old,hit,943,left
2,18,female,native,psychology,1,4,83,80,old,old,hit,1122,right
2,18,female,native,psychology,1,4,84,80,old,old,hit,1325,left
2,18,female,native,psychology,1,4,85,80,new,old,fa,1184,right
2,18,female,native,psychology,1,4,86,80,old,new,miss,1657,right
2,18,female,native,psychology,1,4,87,80,old,old,hit,1310,left
2,18,female,native,psychology,1,4,88,80,old,old,hit,1346,right
2,18,female,native,psychology,1,4,89,80,old,old,hit,2116,right
2,18,female,native,psychology,1,4,90,80,new,old,fa,3638,right
2,18,female,native,psychology,1,4,91,80,old,old,hit,1784,left
2,18,female,native,psychology,1,4,92,80,old,old,hit,2152,right
2,18,female,native,psychology,1,4,93,80,old,old,hit,1720,left
2,18,female,native,psychology,1,4,94,80,old,old,hit,1035,right
2,18,female,native,psychology,1,4,95,80,old,old,hit,1610,left
2,18,female,native,psychology,1,4,96,80,old,old,hit,881,right
2,18,female,native,psychology,1,4,97,80,new,new,cr,1622,left
2,18,female,native,psychology,1,4,98,80,old,old,hit,1421,right
2,18,female,native,psychology,1,4,99,80,old,old,hit,988,left
2,18,female,native,psychology,1,4,100,80,new,new,cr,1565,left
2,18,female,native,psychology,1,5,1,80,new,new,cr,1707,left
2,18,female,native,psychology,1,5,2,80,old,old,hit,1438,right
2,18,female,native,psychology,1,5,3,80,old,old,hit,1516,right
2,18,female,native,psychology,1,5,4,80,old,old,hit,871,right
2,18,female,native,psychology,1,5,5,80,old,new,miss,2221,left
2,18,female,native,psychology,1,5,6,80,old,old,hit,3995,right
2,18,female,native,psychology,1,5,7,80,old,old,hit,2383,right
2,18,female,native,psychology,1,5,8,80,old,old,hit,918,right
2,18,female,native,psychology,1,5,9,80,old,old,hit,1033,left
2,18,female,native,psychology,1,5,10,80,new,old,fa,2136,right
2,18,female,native,psychology,1,5,11,80,old,old,hit,1321,left
2,18,female,native,psychology,1,5,12,80,old,old,hit,956,left
2,18,female,native,psychology,1,5,13,80,new,new,cr,1311,right
2,18,female,native,psychology,1,5,14,80,old,old,hit,1058,left
2,18,female,native,psychology,1,5,15,80,old,old,hit,1456,left
2,18,female,native,psychology,1,5,16,80,new,new,cr,1102,left
2,18,female,native,psychology,1,5,17,80,old,old,hit,1370,right
2,18,female,native,psychology,1,5,18,80,old,old,hit,1211,right
2,18,female,native,psychology,1,5,19,80,old,old,hit,1522,left
2,18,female,native,psychology,1,5,20,80,old,old,hit,909,left
2,18,female,native,psychology,1,5,21,80,old,old,hit,913,right
2,18,female,native,psychology,1,5,22,80,new,old,fa,1429,left
2,18,female,native,psychology,1,5,23,80,new,old,fa,2803,right
2,18,female,native,psychology,1,5,24,80,old,old,hit,2633,right
2,18,female,native,psychology,1,5,25,80,old,old,hit,773,left
2,18,female,native,psychology,1,5,26,80,old,old,hit,863,left
2,18,female,native,psychology,1,5,27,80,new,new,cr,1669,right
2,18,female,native,psychology,1,5,28,80,old,old,hit,937,left
2,18,female,native,psychology,1,5,29,80,old,old,hit,893,right
2,18,female,native,psychology,1,5,30,80,old,old,hit,2322,right
2,18,female,native,psychology,1,5,31,80,old,old,hit,859,left
2,18,female,native,psychology,1,5,32,80,old,old,hit,962,right
2,18,female,native,psychology,1,5,33,80,old,old,hit,851,left
2,18,female,native,psychology,1,5,34,80,old,old,hit,1482,left
2,18,female,native,psychology,1,5,35,80,old,old,hit,806,left
2,18,female,native,psychology,1,5,36,80,old,old,hit,783,left
2,18,female,native,psychology,1,5,37,80,old,old,hit,1256,right
2,18,female,native,psychology,1,5,38,80,old,old,hit,910,right
2,18,female,native,psychology,1,5,39,80,old,old,hit,1218,right
2,18,female,native,psychology,1,5,40,80,new,new,cr,1305,left
2,18,female,native,psychology,1,5,41,80,old,old,hit,1293,right
2,18,female,native,psychology,1,5,42,80,old,old,hit,1505,right
2,18,female,native,psychology,1,5,43,80,old,old,hit,5533,right
2,18,female,native,psychology,1,5,44,80,new,old,fa,2913,left
2,18,female,native,psychology,1,5,45,80,new,new,cr,1810,left
2,18,female,native,psychology,1,5,46,80,old,old,hit,929,right
2,18,female,native,psychology,1,5,47,80,new,new,cr,3524,right
2,18,female,native,psychology,1,5,48,80,old,old,hit,1899,right
2,18,female,native,psychology,1,5,49,80,old,new,miss,1542,left
