Subject,OriginalNumber,Age,Sex,Language,Major,Semester,Session,Cycle,Trial,BaseRate,Stimulus,Response,Matrix,RT,Word
1,11,20,female,native,psychology,1,1,1,1,15,new,new,cr,1872,
1,11,20,female,native,psychology,1,1,1,2,15,new,new,cr,1248,
1,11,20,female,native,psychology,1,1,1,3,15,new,new,cr,1313,
1,11,20,female,native,psychology,1,1,1,4,15,new,new,cr,1528,
1,11,20,female,native,psychology,1,1,1,5,15,old,new,miss,2590,
1,11,20,female,native,psychology,1,1,1,6,15,new,old,fa,2920,
1,11,20,female,native,psychology,1,1,1,7,15,new,old,fa,1005,
1,11,20,female,native,psychology,1,1,1,8,15,new,new,cr,1784,
1,11,20,female,native,psychology,1,1,1,9,15,new,new,cr,1396,
1,11,20,female,native,psychology,1,1,1,10,15,new,new,cr,1280,
1,11,20,female,native,psychology,1,1,1,11,15,old,old,hit,1032,
1,11,20,female,native,psychology,1,1,1,12,15,new,new,cr,1011,
1,11,20,female,native,psychology,1,1,1,13,15,new,new,cr,1015,
1,11,20,female,native,psychology,1,1,1,14,15,new,new,cr,875,
1,11,20,female,native,psychology,1,1,1,15,15,new,new,cr,2108,
1,11,20,female,native,psychology,1,1,1,16,15,new,new,cr,826,
1,11,20,female,native,psychology,1,1,1,17,15,new,new,cr,1101,
1,11,20,female,native,psychology,1,1,1,18,15,new,new,cr,1237,
1,11,20,female,native,psychology,1,1,1,19,15,old,old,hit,904,
1,11,20,female,native,psychology,1,1,1,20,15,new,new,cr,1335,
1,11,20,female,native,psychology,1,1,1,21,15,new,new,cr,1254,
1,11,20,female,native,psychology,1,1,1,22,15,new,new,cr,1560,
1,11,20,female,native,psychology,1,1,1,23,15,new,new,cr,1092,
1,11,20,female,native,psychology,1,1,1,24,15,new,new,cr,1028,
1,11,20,female,native,psychology,1,1,1,25,15,new,new,cr,1159,
1,11,20,female,native,psychology,1,1,1,26,15,new,new,cr,885,
1,11,20,female,native,psychology,1,1,1,27,15,new,new,cr,1294,
1,11,20,female,native,psychology,1,1,1,28,15,new,new,cr,718,
1,11,20,female,native,psychology,1,1,1,29,15,old,old,hit,1262,
1,11,20,female,native,psychology,1,1,1,30,15,new,new,cr,1879,
1,11,20,female,native,psychology,1,1,1,31,15,new,old,fa,4967,
1,11,20,female,native,psychology,1,1,1,32,15,new,old,fa,4502,
1,11,20,female,native,psychology,1,1,1,33,15,new,new,cr,1385,
1,11,20,female,native,psychology,1,1,1,34,15,new,new,cr,837,
1,11,20,female,native,psychology,1,1,1,35,15,old,new,miss,3504,
1,11,20,female,native,psychology,1,1,1,36,15,new,new,cr,877,
1,11,20,female,native,psychology,1,1,1,37,15,old,new,miss,998,
1,11,20,female,native,psychology,1,1,1,38,15,new,new,cr,3721,
1,11,20,female,native,psychology,1,1,1,39,15,new,new,cr,1637,
1,11,20,female,native,psychology,1,1,1,40,15,new,new,cr,1062,
1,11,20,female,native,psychology,1,1,1,41,15,old,old,hit,832,
1,11,20,female,native,psychology,1,1,1,42,15,new,new,cr,995,
1,11,20,female,native,psychology,1,1,1,43,15,new,new,cr,1568,
1,11,20,female,native,psychology,1,1,1,44,15,new,new,cr,2420,
1,11,20,female,native,psychology,1,1,1,45,15,new,new,cr,1046,
1,11,20,female,native,psychology,1,1,1,46,15,new,new,cr,1024,
1,11,20,female,native,psychology,1,1,1,47,15,new,new,cr,1275,
1,11,20,female,native,psychology,1,1,1,48,15,new,new,cr,779,
1,11,20,female,native,psychology,1,1,1,49,15,new,new,cr,705,
1,11,20,female,native,psychology,1,1,1,50,15,old,old,hit,1177,
1,11,20,female,native,psychology,1,1,1,51,15,new,new,cr,3014,
1,11,20,female,native,psychology,1,1,1,52,15,new,new,cr,1022,
1,11,20,female,native,psychology,1,1,1,53,15,new,new,cr,1025,
1,11,20,female,native,psychology,1,1,1,54,15,new,new,cr,916,
1,11,20,female,native,psychology,1,1,1,55,15,old,old,hit,940,
1,11,20,female,native,psychology,1,1,1,56,15,new,new,cr,1129,
1,11,20,female,native,psychology,1,1,1,57,15,new,new,cr,920,
1,11,20,female,native,psychology,1,1,1,58,15,new,new,cr,4408,
1,11,20,female,native,psychology,1,1,1,59,15,new,new,cr,1191,
1,11,20,female,native,psychology,1,1,1,60,15,new,new,cr,803,
1,11,20,female,native,psychology,1,1,1,61,15,new,new,cr,887,
1,11,20,female,native,psychology,1,1,1,62,15,new,new,cr,992,
1,11,20,female,native,psychology,1,1,1,63,15,old,old,hit,1629,
1,11,20,female,native,psychology,1,1,1,64,15,new,new,cr,903,
1,11,20,female,native,psychology,1,1,1,65,15,new,new,cr,1159,
1,11,20,female,native,psychology,1,1,1,66,15,new,old,fa,3989,
1,11,20,female,native,psychology,1,1,1,67,15,new,new,cr,1269,
1,11,20,female,native,psychology,1,1,1,68,15,new,new,cr,854,
1,11,20,female,native,psychology,1,1,1,69,15,new,new,cr,745,
1,11,20,female,native,psychology,1,1,1,70,15,old,old,hit,751,
1,11,20,female,native,psychology,1,1,1,71,15,new,new,cr,1846,
1,11,20,female,native,psychology,1,1,1,72,15,new,new,cr,1159,
1,11,20,female,native,psychology,1,1,1,73,15,new,new,cr,684,
1,11,20,female,native,psychology,1,1,1,74,15,old,old,hit,910,
1,11,20,female,native,psychology,1,1,1,75,15,new,new,cr,813,
1,11,20,female,native,psychology,1,1,1,76,15,new,new,cr,913,
1,11,20,female,native,psychology,1,1,1,77,15,new,new,cr,2960,
1,11,20,female,native,psychology,1,1,1,78,15,new,new,cr,747,
1,11,20,female,native,psychology,1,1,1,79,15,new,new,cr,1002,
1,11,20,female,native,psychology,1,1,1,80,15,new,new,cr,822,
1,11,20,female,native,psychology,1,1,1,81,15,new,new,cr,721,
1,11,20,female,native,psychology,1,1,1,82,15,new,new,cr,825,
1,11,20,female,native,psychology,1,1,1,83,15,new,new,cr,788,
1,11,20,female,native,psychology,1,1,1,84,15,old,old,hit,849,
1,11,20,female,native,psychology,1,1,1,85,15,new,new,cr,1387,
1,11,20,female,native,psychology,1,1,1,86,15,new,new,cr,735,
1,11,20,female,native,psychology,1,1,1,87,15,new,new,cr,3383,
1,11,20,female,native,psychology,1,1,1,88,15,new,new,cr,768,
1,11,20,female,native,psychology,1,1,1,89,15,new,new,cr,966,
1,11,20,female,native,psychology,1,1,1,90,15,new,new,cr,820,
1,11,20,female,native,psychology,1,1,1,91,15,old,old,hit,2840,
1,11,20,female,native,psychology,1,1,1,92,15,new,new,cr,944,
1,11,20,female,native,psychology,1,1,1,93,15,new,new,cr,678,
1,11,20,female,native,psychology,1,1,1,94,15,new,new,cr,943,
1,11,20,female,native,psychology,1,1,1,95,15,new,new,cr,1069,
1,11,20,female,native,psychology,1,1,1,96,15,new,new,cr,1159,
1,11,20,female,native,psychology,1,1,1,97,15,new,new,cr,988,
1,11,20,female,native,psychology,1,1,1,98,15,old,old,hit,880,
1,11,20,female,native,psychology,1,1,1,99,15,new,new,cr,914,
1,11,20,female,native,psychology,1,1,1,100,15,new,new,cr,3521,
1,11,20,female,native,psychology,1,1,2,1,85,old,new,miss,1744,
1,11,20,female,native,psychology,1,1,2,2,85,old,old,hit,2773,
1,11,20,female,native,psychology,1,1,2,3,85,old,old,hit,1080,
1,11,20,female,native,psychology,1,1,2,4,85,old,old,hit,681,
1,11,20,female,native,psychology,1,1,2,5,85,old,old,hit,835,
1,11,20,female,native,psychology,1,1,2,6,85,old,old,hit,654,
1,11,20,female,native,psychology,1,1,2,7,85,new,new,cr,4232,
1,11,20,female,native,psychology,1,1,2,8,85,old,old,hit,2894,
1,11,20,female,native,psychology,1,1,2,9,85,old,old,hit,1011,
1,11,20,female,native,psychology,1,1,2,10,85,old,new,miss,1231,
1,11,20,female,native,psychology,1,1,2,11,85,old,old,hit,937,
1,11,20,female,native,psychology,1,1,2,12,85,old,old,hit,640,
1,11,20,female,native,psychology,1,1,2,13,85,new,new,cr,1082,
1,11,20,female,native,psychology,1,1,2,14,85,old,new,miss,2427,
1,11,20,female,native,psychology,1,1,2,15,85,old,old,hit,788,
1,11,20,female,native,psychology,1,1,2,16,85,old,old,hit,3193,
1,11,20,female,native,psychology,1,1,2,17,85,new,old,fa,3009,
1,11,20,female,native,psychology,1,1,2,18,85,old,old,hit,818,
1,11,20,female,native,psychology,1,1,2,19,85,old,old,hit,1694,
1,11,20,female,native,psychology,1,1,2,20,85,old,old,hit,829,
1,11,20,female,native,psychology,1,1,2,21,85,old,old,hit,1032,
1,11,20,female,native,psychology,1,1,2,22,85,new,new,cr,2795,
1,11,20,female,native,psychology,1,1,2,23,85,old,old,hit,1133,
1,11,20,female,native,psychology,1,1,2,24,85,new,new,cr,955,
1,11,20,female,native,psychology,1,1,2,25,85,old,old,hit,889,
1,11,20,female,native,psychology,1,1,2,26,85,old,old,hit,1138,
1,11,20,female,native,psychology,1,1,2,27,85,old,old,hit,784,
1,11,20,female,native,psychology,1,1,2,28,85,old,old,hit,846,
1,11,20,female,native,psychology,1,1,2,29,85,old,old,hit,664,
1,11,20,female,native,psychology,1,1,2,30,85,old,old,hit,794,
1,11,20,female,native,psychology,1,1,2,31,85,old,old,hit,718,
1,11,20,female,native,psychology,1,1,2,32,85,old,old,hit,646,
1,11,20,female,native,psychology,1,1,2,33,85,old,old,hit,929,
1,11,20,female,native,psychology,1,1,2,34,85,old,old,hit,904,
1,11,20,female,native,psychology,1,1,2,35,85,old,new,miss,3744,
1,11,20,female,native,psychology,1,1,2,36,85,old,old,hit,1258,
1,11,20,female,native,psychology,1,1,2,37,85,new,new,cr,2115,
1,11,20,female,native,psychology,1,1,2,38,85,old,old,hit,857,
1,11,20,female,native,psychology,1,1,2,39,85,old,old,hit,731,
1,11,20,female,native,psychology,1,1,2,40,85,old,old,hit,858,
1,11,20,female,native,psychology,1,1,2,41,85,old,old,hit,924,
1,11,20,female,native,psychology,1,1,2,42,85,old,old,hit,2907,
1,11,20,female,native,psychology,1,1,2,43,85,old,old,hit,1129,
1,11,20,female,native,psychology,1,1,2,44,85,old,old,hit,759,
1,11,20,female,native,psychology,1,1,2,45,85,old,new,miss,1317,
1,11,20,female,native,psychology,1,1,2,46,85,new,new,cr,1469,
1,11,20,female,native,psychology,1,1,2,47,85,old,old,hit,773,
1,11,20,female,native,psychology,1,1,2,48,85,old,old,hit,667,
1,11,20,female,native,psychology,1,1,2,49,85,old,old,hit,693,
1,11,20,female,native,psychology,1,1,2,50,85,old,old,hit,1045,
1,11,20,female,native,psychology,1,1,2,51,85,old,old,hit,615,
1,11,20,female,native,psychology,1,1,2,52,85,new,new,cr,1115,
1,11,20,female,native,psychology,1,1,2,53,85,new,old,fa,2715,
1,11,20,female,native,psychology,1,1,2,54,85,old,old,hit,816,
1,11,20,female,native,psychology,1,1,2,55,85,old,old,hit,1004,
1,11,20,female,native,psychology,1,1,2,56,85,old,old,hit,720,
1,11,20,female,native,psychology,1,1,2,57,85,old,old,hit,656,
1,11,20,female,native,psychology,1,1,2,58,85,old,old,hit,538,
1,11,20,female,native,psychology,1,1,2,59,85,old,old,hit,633,
1,11,20,female,native,psychology,1,1,2,60,85,old,old,hit,709,
1,11,20,female,native,psychology,1,1,2,61,85,new,old,fa,1885,
1,11,20,female,native,psychology,1,1,2,62,85,old,old,hit,1085,
1,11,20,female,native,psychology,1,1,2,63,85,old,old,hit,837,
1,11,20,female,native,psychology,1,1,2,64,85,old,old,hit,681,
1,11,20,female,native,psychology,1,1,2,65,85,new,new,cr,1514,
1,11,20,female,native,psychology,1,1,2,66,85,new,new,cr,1977,
1,11,20,female,native,psychology,1,1,2,67,85,old,old,hit,628,
1,11,20,female,native,psychology,1,1,2,68,85,old,old,hit,5192,
1,11,20,female,native,psychology,1,1,2,69,85,old,old,hit,725,
1,11,20,female,native,psychology,1,1,2,70,85,old,new,miss,1077,
1,11,20,female,native,psychology,1,1,2,71,85,old,old,hit,1174,
1,11,20,female,native,psychology,1,1,2,72,85,old,old,hit,986,
1,11,20,female,native,psychology,1,1,2,73,85,old,old,hit,1439,
1,11,20,female,native,psychology,1,1,2,74,85,old,old,hit,1473,
1,11,20,female,native,psychology,1,1,2,75,85,old,old,hit,1217,
1,11,20,female,native,psychology,1,1,2,76,85,old,old,hit,740,
1,11,20,female,native,psychology,1,1,2,77,85,old,old,hit,1171,
1,11,20,female,native,psychology,1,1,2,78,85,old,old,hit,977,
1,11,20,female,native,psychology,1,1,2,79,85,old,old,hit,686,
1,11,20,female,native,psychology,1,1,2,80,85,old,old,hit,591,
1,11,20,female,native,psychology,1,1,2,81,85,old,new,miss,3988,
1,11,20,female,native,psychology,1,1,2,82,85,old,old,hit,852,
1,11,20,female,native,psychology,1,1,2,83,85,old,old,hit,671,
1,11,20,female,native,psychology,1,1,2,84,85,old,old,hit,680,
1,11,20,female,native,psychology,1,1,2,85,85,old,old,hit,634,
1,11,20,female,native,psychology,1,1,2,86,85,new,new,cr,1429,
1,11,20,female,native,psychology,1,1,2,87,85,old,new,miss,3079,
1,11,20,female,native,psychology,1,1,2,88,85,new,new,cr,1436,
1,11,20,female,native,psychology,1,1,2,89,85,old,old,hit,1311,
1,11,20,female,native,psychology,1,1,2,90,85,old,old,hit,710,
1,11,20,female,native,psychology,1,1,2,91,85,old,old,hit,830,
1,11,20,female,native,psychology,1,1,2,92,85,new,old,fa,4753,
1,11,20,female,native,psychology,1,1,2,93,85,old,old,hit,841,
1,11,20,female,native,psychology,1,1,2,94,85,old,old,hit,852,
1,11,20,female,native,psychology,1,1,2,95,85,old,old,hit,1399,
1,11,20,female,native,psychology,1,1,2,96,85,old,old,hit,3986,
1,11,20,female,native,psychology,1,1,2,97,85,old,old,hit,1570,
1,11,20,female,native,psychology,1,1,2,98,85,old,old,hit,903,
1,11,20,female,native,psychology,1,1,2,99,85,old,old,hit,936,
1,11,20,female,native,psychology,1,1,2,100,85,old,old,hit,751,
1,11,20,female,native,psychology,1,1,3,1,50,new,new,cr,1425,
1,11,20,female,native,psychology,1,1,3,2,50,old,old,hit,755,
1,11,20,female,native,psychology,1,1,3,3,50,old,old,hit,897,
1,11,20,female,native,psychology,1,1,3,4,50,old,old,hit,682,
1,11,20,female,native,psychology,1,1,3,5,50,old,old,hit,939,
1,11,20,female,native,psychology,1,1,3,6,50,new,new,cr,714,
1,11,20,female,native,psychology,1,1,3,7,50,new,new,cr,1290,
1,11,20,female,native,psychology,1,1,3,8,50,old,old,hit,802,
1,11,20,female,native,psychology,1,1,3,9,50,new,new,cr,989,
1,11,20,female,native,psychology,1,1,3,10,50,old,old,hit,682,
1,11,20,female,native,psychology,1,1,3,11,50,old,old,hit,659,
1,11,20,female,native,psychology,1,1,3,12,50,new,new,cr,821,
1,11,20,female,native,psychology,1,1,3,13,50,new,old,fa,1864,
1,11,20,female,native,psychology,1,1,3,14,50,old,old,hit,673,
1,11,20,female,native,psychology,1,1,3,15,50,old,old,hit,674,
1,11,20,female,native,psychology,1,1,3,16,50,new,old,fa,548,
1,11,20,female,native,psychology,1,1,3,17,50,new,new,cr,1027,
1,11,20,female,native,psychology,1,1,3,18,50,new,new,cr,2038,
1,11,20,female,native,psychology,1,1,3,19,50,new,new,cr,1375,
1,11,20,female,native,psychology,1,1,3,20,50,old,old,hit,699,
1,11,20,female,native,psychology,1,1,3,21,50,new,new,cr,1500,
1,11,20,female,native,psychology,1,1,3,22,50,new,new,cr,820,
1,11,20,female,native,psychology,1,1,3,23,50,old,old,hit,1168,
1,11,20,female,native,psychology,1,1,3,24,50,new,new,cr,1085,
1,11,20,female,native,psychology,1,1,3,25,50,old,old,hit,1206,
1,11,20,female,native,psychology,1,1,3,26,50,old,old,hit,697,
1,11,20,female,native,psychology,1,1,3,27,50,new,old,fa,1226,
1,11,20,female,native,psychology,1,1,3,28,50,new,new,cr,1229,
1,11,20,female,native,psychology,1,1,3,29,50,new,new,cr,3590,
1,11,20,female,native,psychology,1,1,3,30,50,new,new,cr,2575,
1,11,20,female,native,psychology,1,1,3,31,50,new,new,cr,1106,
1,11,20,female,native,psychology,1,1,3,32,50,old,old,hit,1393,
1,11,20,female,native,psychology,1,1,3,33,50,old,old,hit,605,
1,11,20,female,native,psychology,1,1,3,34,50,old,old,hit,929,
1,11,20,female,native,psychology,1,1,3,35,50,old,old,hit,904,
1,11,20,female,native,psychology,1,1,3,36,50,old,old,hit,640,
1,11,20,female,native,psychology,1,1,3,37,50,old,old,hit,723,
1,11,20,female,native,psychology,1,1,3,38,50,new,new,cr,914,
1,11,20,female,native,psychology,1,1,3,39,50,new,new,cr,970,
1,11,20,female,native,psychology,1,1,3,40,50,old,old,hit,776,
1,11,20,female,native,psychology,1,1,3,41,50,old,new,miss,1989,
1,11,20,female,native,psychology,1,1,3,42,50,new,old,fa,872,
1,11,20,female,native,psychology,1,1,3,43,50,new,new,cr,1274,
1,11,20,female,native,psychology,1,1,3,44,50,old,new,miss,1250,
1,11,20,female,native,psychology,1,1,3,45,50,old,old,hit,1380,
1,11,20,female,native,psychology,1,1,3,46,50,new,new,cr,3096,
1,11,20,female,native,psychology,1,1,3,47,50,old,new,miss,2780,
1,11,20,female,native,psychology,1,1,3,48,50,old,new,miss,1079,
1,11,20,female,native,psychology,1,1,3,49,50,old,old,hit,639,
1,11,20,female,native,psychology,1,1,3,50,50,new,new,cr,1026,
1,11,20,female,native,psychology,1,1,3,51,50,new,new,cr,1717,
1,11,20,female,native,psychology,1,1,3,52,50,old,old,hit,1276,
1,11,20,female,native,psychology,1,1,3,53,50,new,new,cr,8716,
1,11,20,female,native,psychology,1,1,3,54,50,old,old,hit,1052,
1,11,20,female,native,psychology,1,1,3,55,50,new,new,cr,2071,
1,11,20,female,native,psychology,1,1,3,56,50,new,new,cr,1031,
1,11,20,female,native,psychology,1,1,3,57,50,old,old,hit,762,
1,11,20,female,native,psychology,1,1,3,58,50,old,new,miss,1872,
1,11,20,female,native,psychology,1,1,3,59,50,new,new,cr,1016,
1,11,20,female,native,psychology,1,1,3,60,50,new,old,fa,859,
1,11,20,female,native,psychology,1,1,3,61,50,new,new,cr,3685,
1,11,20,female,native,psychology,1,1,3,62,50,old,old,hit,753,
1,11,20,female,native,psychology,1,1,3,63,50,old,old,hit,1104,
1,11,20,female,native,psychology,1,1,3,64,50,new,new,cr,856,
1,11,20,female,native,psychology,1,1,3,65,50,new,new,cr,1666,
1,11,20,female,native,psychology,1,1,3,66,50,old,old,hit,770,
1,11,20,female,native,psychology,1,1,3,67,50,new,new,cr,856,
1,11,20,female,native,psychology,1,1,3,68,50,old,old,hit,754,
1,11,20,female,native,psychology,1,1,3,69,50,old,old,hit,1256,
1,11,20,female,native,psychology,1,1,3,70,50,new,new,cr,1114,
1,11,20,female,native,psychology,1,1,3,71,50,new,new,cr,913,
1,11,20,female,native,psychology,1,1,3,72,50,old,new,miss,2145,
1,11,20,female,native,psychology,1,1,3,73,50,new,new,cr,1293,
1,11,20,female,native,psychology,1,1,3,74,50,new,new,cr,2693,
1,11,20,female,native,psychology,1,1,3,75,50,new,new,cr,1027,
1,11,20,female,native,psychology,1,1,3,76,50,new,old,fa,1094,
1,11,20,female,native,psychology,1,1,3,77,50,old,old,hit,686,
1,11,20,female,native,psychology,1,1,3,78,50,old,old,hit,647,
1,11,20,female,native,psychology,1,1,3,79,50,old,old,hit,722,
1,11,20,female,native,psychology,1,1,3,80,50,old,old,hit,642,
1,11,20,female,native,psychology,1,1,3,81,50,new,new,cr,2533,
1,11,20,female,native,psychology,1,1,3,82,50,old,old,hit,888,
1,11,20,female,native,psychology,1,1,3,83,50,new,new,cr,953,
1,11,20,female,native,psychology,1,1,3,84,50,old,old,hit,719,
1,11,20,female,native,psychology,1,1,3,85,50,new,new,cr,2271,
1,11,20,female,native,psychology,1,1,3,86,50,new,old,fa,2351,
1,11,20,female,native,psychology,1,1,3,87,50,old,old,hit,827,
1,11,20,female,native,psychology,1,1,3,88,50,new,new,cr,1214,
1,11,20,female,native,psychology,1,1,3,89,50,new,new,cr,1809,
1,11,20,female,native,psychology,1,1,3,90,50,old,old,hit,796,
1,11,20,female,native,psychology,1,1,3,91,50,old,new,miss,1616,
1,11,20,female,native,psychology,1,1,3,92,50,new,new,cr,2355,
1,11,20,female,native,psychology,1,1,3,93,50,old,old,hit,2415,
1,11,20,female,native,psychology,1,1,3,94,50,old,new,miss,1057,
1,11,20,female,native,psychology,1,1,3,95,50,old,old,hit,730,
1,11,20,female,native,psychology,1,1,3,96,50,old,old,hit,866,
1,11,20,female,native,psychology,1,1,3,97,50,new,old,fa,899,
1,11,20,female,native,psychology,1,1,3,98,50,new,old,fa,1212,
1,11,20,female,native,psychology,1,1,3,99,50,old,old,hit,1511,
1,11,20,female,native,psychology,1,1,3,100,50,new,new,cr,2878,
1,11,20,female,native,psychology,1,2,4,1,15,new,new,cr,2040,
1,11,20,female,native,psychology,1,2,4,2,15,new,new,cr,1072,
1,11,20,female,native,psychology,1,2,4,3,15,new,new,cr,761,
1,11,20,female,native,psychology,1,2,4,4,15,new,new,cr,1503,
1,11,20,female,native,psychology,1,2,4,5,15,new,new,cr,727,
1,11,20,female,native,psychology,1,2,4,6,15,new,new,cr,774,
1,11,20,female,native,psychology,1,2,4,7,15,new,new,cr,1179,
1,11,20,female,native,psychology,1,2,4,8,15,new,new,cr,760,
1,11,20,female,native,psychology,1,2,4,9,15,new,new,cr,654,
1,11,20,female,native,psychology,1,2,4,10,15,new,new,cr,640,
1,11,20,female,native,psychology,1,2,4,11,15,new,new,cr,915,
1,11,20,female,native,psychology,1,2,4,12,15,old,old,hit,819,
1,11,20,female,native,psychology,1,2,4,13,15,new,new,cr,862,
1,11,20,female,native,psychology,1,2,4,14,15,new,new,cr,1392,
1,11,20,female,native,psychology,1,2,4,15,15,new,new,cr,1355,
1,11,20,female,native,psychology,1,2,4,16,15,new,new,cr,752,
1,11,20,female,native,psychology,1,2,4,17,15,new,new,cr,639,
1,11,20,female,native,psychology,1,2,4,18,15,old,old,hit,970,
1,11,20,female,native,psychology,1,2,4,19,15,new,new,cr,744,
1,11,20,female,native,psychology,1,2,4,20,15,old,old,hit,750,
1,11,20,female,native,psychology,1,2,4,21,15,new,new,cr,1261,
1,11,20,female,native,psychology,1,2,4,22,15,new,new,cr,1494,
1,11,20,female,native,psychology,1,2,4,23,15,new,new,cr,806,
1,11,20,female,native,psychology,1,2,4,24,15,new,new,cr,866,
1,11,20,female,native,psychology,1,2,4,25,15,new,new,cr,940,
1,11,20,female,native,psychology,1,2,4,26,15,new,new,cr,770,
1,11,20,female,native,psychology,1,2,4,27,15,new,new,cr,784,
1,11,20,female,native,psychology,1,2,4,28,15,new,old,fa,893,
1,11,20,female,native,psychology,1,2,4,29,15,old,new,miss,2862,
1,11,20,female,native,psychology,1,2,4,30,15,old,old,hit,908,
1,11,20,female,native,psychology,1,2,4,31,15,new,new,cr,2276,
1,11,20,female,native,psychology,1,2,4,32,15,new,new,cr,3403,
1,11,20,female,native,psychology,1,2,4,33,15,new,new,cr,963,
1,11,20,female,native,psychology,1,2,4,34,15,old,old,hit,769,
1,11,20,female,native,psychology,1,2,4,35,15,new,new,cr,775,
1,11,20,female,native,psychology,1,2,4,36,15,new,new,cr,1964,
1,11,20,female,native,psychology,1,2,4,37,15,new,new,cr,681,
1,11,20,female,native,psychology,1,2,4,38,15,new,new,cr,906,
1,11,20,female,native,psychology,1,2,4,39,15,new,new,cr,666,
1,11,20,female,native,psychology,1,2,4,40,15,new,new,cr,660,
1,11,20,female,native,psychology,1,2,4,41,15,new,new,cr,670,
1,11,20,female,native,psychology,1,2,4,42,15,old,old,hit,672,
1,11,20,female,native,psychology,1,2,4,43,15,new,new,cr,946,
1,11,20,female,native,psychology,1,2,4,44,15,new,new,cr,2048,
1,11,20,female,native,psychology,1,2,4,45,15,new,new,cr,1481,
1,11,20,female,native,psychology,1,2,4,46,15,old,old,hit,745,
1,11,20,female,native,psychology,1,2,4,47,15,new,new,cr,736,
1,11,20,female,native,psychology,1,2,4,48,15,new,new,cr,3486,
1,11,20,female,native,psychology,1,2,4,49,15,new,new,cr,883,
1,11,20,female,native,psychology,1,2,4,50,15,new,new,cr,900,
1,11,20,female,native,psychology,1,2,4,51,15,new,new,cr,885,
1,11,20,female,native,psychology,1,2,4,52,15,new,new,cr,2750,
1,11,20,female,native,psychology,1,2,4,53,15,new,new,cr,817,
1,11,20,female,native,psychology,1,2,4,54,15,new,new,cr,2149,
1,11,20,female,native,psychology,1,2,4,55,15,new,new,cr,674,
1,11,20,female,native,psychology,1,2,4,56,15,new,new,cr,1667,
1,11,20,female,native,psychology,1,2,4,57,15,old,old,hit,2044,
1,11,20,female,native,psychology,1,2,4,58,15,new,new,cr,924,
1,11,20,female,native,psychology,1,2,4,59,15,new,new,cr,2315,
1,11,20,female,native,psychology,1,2,4,60,15,new,new,cr,937,
1,11,20,female,native,psychology,1,2,4,61,15,new,new,cr,896,
1,11,20,female,native,psychology,1,2,4,62,15,new,new,cr,608,
1,11,20,female,native,psychology,1,2,4,63,15,new,new,cr,637,
1,11,20,female,native,psychology,1,2,4,64,15,new,new,cr,768,
1,11,20,female,native,psychology,1,2,4,65,15,new,new,cr,1838,
1,11,20,female,native,psychology,1,2,4,66,15,new,new,cr,679,
1,11,20,female,native,psychology,1,2,4,67,15,new,new,cr,497,
1,11,20,female,native,psychology,1,2,4,68,15,new,new,cr,890,
1,11,20,female,native,psychology,1,2,4,69,15,old,old,hit,1858,
1,11,20,female,native,psychology,1,2,4,70,15,new,new,cr,1411,
1,11,20,female,native,psychology,1,2,4,71,15,new,old,fa,781,
1,11,20,female,native,psychology,1,2,4,72,15,new,new,cr,5267,
1,11,20,female,native,psychology,1,2,4,73,15,new,new,cr,942,
1,11,20,female,native,psychology,1,2,4,74,15,new,new,cr,1108,
1,11,20,female,native,psychology,1,2,4,75,15,new,new,cr,611,
1,11,20,female,native,psychology,1,2,4,76,15,old,old,hit,2000,
1,11,20,female,native,psychology,1,2,4,77,15,new,new,cr,850,
1,11,20,female,native,psychology,1,2,4,78,15,new,new,cr,1413,
1,11,20,female,native,psychology,1,2,4,79,15,old,old,hit,2296,
1,11,20,female,native,psychology,1,2,4,80,15,new,new,cr,862,
1,11,20,female,native,psychology,1,2,4,81,15,old,old,hit,1088,
1,11,20,female,native,psychology,1,2,4,82,15,new,new,cr,873,
1,11,20,female,native,psychology,1,2,4,83,15,new,new,cr,1202,
1,11,20,female,native,psychology,1,2,4,84,15,old,old,hit,1197,
1,11,20,female,native,psychology,1,2,4,85,15,new,new,cr,1401,
1,11,20,female,native,psychology,1,2,4,86,15,new,new,cr,861,
1,11,20,female,native,psychology,1,2,4,87,15,new,new,cr,598,
1,11,20,female,native,psychology,1,2,4,88,15,new,new,cr,675,
1,11,20,female,native,psychology,1,2,4,89,15,new,new,cr,597,
1,11,20,female,native,psychology,1,2,4,90,15,old,old,hit,4114,
1,11,20,female,native,psychology,1,2,4,91,15,new,new,cr,1140,
1,11,20,female,native,psychology,1,2,4,92,15,new,new,cr,1170,
1,11,20,female,native,psychology,1,2,4,93,15,new,new,cr,904,
1,11,20,female,native,psychology,1,2,4,94,15,new,new,cr,848,
1,11,20,female,native,psychology,1,2,4,95,15,new,new,cr,1450,
1,11,20,female,native,psychology,1,2,4,96,15,new,new,cr,1972,
1,11,20,female,native,psychology,1,2,4,97,15,new,new,cr,1696,
1,11,20,female,native,psychology,1,2,4,98,15,new,new,cr,639,
1,11,20,female,native,psychology,1,2,4,99,15,new,new,cr,1314,
1,11,20,female,native,psychology,1,2,4,100,15,new,new,cr,905,
1,11,20,female,native,psychology,1,2,5,1,25,new,new,cr,1075,
1,11,20,female,native,psychology,1,2,5,2,25,old,old,hit,852,
1,11,20,female,native,psychology,1,2,5,3,25,new,new,cr,743,
1,11,20,female,native,psychology,1,2,5,4,25,new,new,cr,844,
1,11,20,female,native,psychology,1,2,5,5,25,new,new,cr,687,
1,11,20,female,native,psychology,1,2,5,6,25,new,new,cr,520,
1,11,20,female,native,psychology,1,2,5,7,25,old,old,hit,712,
1,11,20,female,native,psychology,1,2,5,8,25,old,old,hit,760,
1,11,20,female,native,psychology,1,2,5,9,25,new,new,cr,918,
1,11,20,female,native,psychology,1,2,5,10,25,new,new,cr,662,
1,11,20,female,native,psychology,1,2,5,11,25,new,old,fa,2168,
1,11,20,female,native,psychology,1,2,5,12,25,new,new,cr,1428,
1,11,20,female,native,psychology,1,2,5,13,25,new,new,cr,662,
1,11,20,female,native,psychology,1,2,5,14,25,new,new,cr,648,
1,11,20,female,native,psychology,1,2,5,15,25,new,new,cr,603,
1,11,20,female,native,psychology,1,2,5,16,25,old,old,hit,768,
1,11,20,female,native,psychology,1,2,5,17,25,new,new,cr,1566,
1,11,20,female,native,psychology,1,2,5,18,25,old,old,hit,811,
1,11,20,female,native,psychology,1,2,5,19,25,new,new,cr,1727,
1,11,20,female,native,psychology,1,2,5,20,25,new,new,cr,980,
1,11,20,female,native,psychology,1,2,5,21,25,old,old,hit,969,
1,11,20,female,native,psychology,1,2,5,22,25,new,new,cr,879,
1,11,20,female,native,psychology,1,2,5,23,25,new,new,cr,832,
1,11,20,female,native,psychology,1,2,5,24,25,new,new,cr,1556,
1,11,20,female,native,psychology,1,2,5,25,25,old,old,hit,1208,
1,11,20,female,native,psychology,1,2,5,26,25,old,new,miss,1380,
1,11,20,female,native,psychology,1,2,5,27,25,old,old,hit,920,
1,11,20,female,native,psychology,1,2,5,28,25,new,new,cr,944,
1,11,20,female,native,psychology,1,2,5,29,25,old,new,miss,1174,
1,11,20,female,native,psychology,1,2,5,30,25,new,new,cr,1163,
1,11,20,female,native,psychology,1,2,5,31,25,new,new,cr,832,
1,11,20,female,native,psychology,1,2,5,32,25,new,new,cr,2067,
1,11,20,female,native,psychology,1,2,5,33,25,new,new,cr,763,
1,11,20,female,native,psychology,1,2,5,34,25,new,new,cr,697,
1,11,20,female,native,psychology,1,2,5,35,25,new,new,cr,1426,
1,11,20,female,native,psychology,1,2,5,36,25,new,new,cr,876,
1,11,20,female,native,psychology,1,2,5,37,25,new,new,cr,693,
1,11,20,female,native,psychology,1,2,5,38,25,new,new,cr,878,
1,11,20,female,native,psychology,1,2,5,39,25,new,new,cr,1543,
1,11,20,female,native,psychology,1,2,5,40,25,new,new,cr,629,
1,11,20,female,native,psychology,1,2,5,41,25,new,new,cr,1208,
1,11,20,female,native,psychology,1,2,5,42,25,new,new,cr,1228,
1,11,20,female,native,psychology,1,2,5,43,25,new,new,cr,861,
1,11,20,female,native,psychology,1,2,5,44,25,old,new,miss,1135,
1,11,20,female,native,psychology,1,2,5,45,25,new,new,cr,2174,
1,11,20,female,native,psychology,1,2,5,46,25,new,new,cr,1985,
1,11,20,female,native,psychology,1,2,5,47,25,old,new,miss,1020,
1,11,20,female,native,psychology,1,2,5,48,25,new,new,cr,2096,
1,11,20,female,native,psychology,1,2,5,49,25,old,new,miss,2326,
1,11,20,female,native,psychology,1,2,5,50,25,new,new,cr,1275,
1,11,20,female,native,psychology,1,2,5,51,25,old,old,hit,2908,
1,11,20,female,native,psychology,1,2,5,52,25,new,new,cr,1040,
1,11,20,female,native,psychology,1,2,5,53,25,new,new,cr,987,
1,11,20,female,native,psychology,1,2,5,54,25,new,new,cr,1592,
1,11,20,female,native,psychology,1,2,5,55,25,new,new,cr,763,
1,11,20,female,native,psychology,1,2,5,56,25,new,new,cr,817,
1,11,20,female,native,psychology,1,2,5,57,25,new,new,cr,829,
1,11,20,female,native,psychology,1,2,5,58,25,old,old,hit,3064,
1,11,20,female,native,psychology,1,2,5,59,25,new,new,cr,854,
1,11,20,female,native,psychology,1,2,5,60,25,new,new,cr,1168,
1,11,20,female,native,psychology,1,2,5,61,25,new,new,cr,1934,
1,11,20,female,native,psychology,1,2,5,62,25,new,new,cr,963,
1,11,20,female,native,psychology,1,2,5,63,25,old,old,hit,809,
1,11,20,female,native,psychology,1,2,5,64,25,new,new,cr,1309,
1,11,20,female,native,psychology,1,2,5,65,25,new,new,cr,1532,
1,11,20,female,native,psychology,1,2,5,66,25,new,new,cr,2026,
1,11,20,female,native,psychology,1,2,5,67,25,new,new,cr,827,
1,11,20,female,native,psychology,1,2,5,68,25,new,new,cr,1126,
1,11,20,female,native,psychology,1,2,5,69,25,new,new,cr,2309,
1,11,20,female,native,psychology,1,2,5,70,25,new,new,cr,755,
1,11,20,female,native,psychology,1,2,5,71,25,old,old,hit,809,
1,11,20,female,native,psychology,1,2,5,72,25,old,new,miss,749,
1,11,20,female,native,psychology,1,2,5,73,25,new,new,cr,859,
1,11,20,female,native,psychology,1,2,5,74,25,new,new,cr,757,
1,11,20,female,native,psychology,1,2,5,75,25,new,new,cr,3467,
1,11,20,female,native,psychology,1,2,5,76,25,old,old,hit,1104,
1,11,20,female,native,psychology,1,2,5,77,25,old,old,hit,3207,
1,11,20,female,native,psychology,1,2,5,78,25,new,new,cr,871,
1,11,20,female,native,psychology,1,2,5,79,25,new,new,cr,1113,
1,11,20,female,native,psychology,1,2,5,80,25,new,new,cr,776,
1,11,20,female,native,psychology,1,2,5,81,25,old,new,miss,1741,
1,11,20,female,native,psychology,1,2,5,82,25,old,old,hit,4378,
1,11,20,female,native,psychology,1,2,5,83,25,new,new,cr,978,
1,11,20,female,native,psychology,1,2,5,84,25,new,new,cr,911,
1,11,20,female,native,psychology,1,2,5,85,25,new,new,cr,855,
1,11,20,female,native,psychology,1,2,5,86,25,old,old,hit,913,
1,11,20,female,native,psychology,1,2,5,87,25,old,old,hit,2864,
1,11,20,female,native,psychology,1,2,5,88,25,new,new,cr,879,
1,11,20,female,native,psychology,1,2,5,89,25,new,new,cr,944,
1,11,20,female,native,psychology,1,2,5,90,25,new,new,cr,1918,
1,11,20,female,native,psychology,1,2,5,91,25,new,new,cr,861,
1,11,20,female,native,psychology,1,2,5,92,25,new,new,cr,2511,
1,11,20,female,native,psychology,1,2,5,93,25,new,new,cr,1164,
1,11,20,female,native,psychology,1,2,5,94,25,new,new,cr,737,
1,11,20,female,native,psychology,1,2,5,95,25,new,new,cr,712,
1,11,20,female,native,psychology,1,2,5,96,25,new,new,cr,873,
1,11,20,female,native,psychology,1,2,5,97,25,new,new,cr,834,
1,11,20,female,native,psychology,1,2,5,98,25,old,old,hit,773,
1,11,20,female,native,psychology,1,2,5,99,25,new,new,cr,874,
1,11,20,female,native,psychology,1,2,5,100,25,new,new,cr,651,
1,11,20,female,native,psychology,1,2,6,1,85,old,old,hit,1414,
1,11,20,female,native,psychology,1,2,6,2,85,old,old,hit,577,
1,11,20,female,native,psychology,1,2,6,3,85,old,old,hit,559,
1,11,20,female,native,psychology,1,2,6,4,85,old,old,hit,709,
1,11,20,female,native,psychology,1,2,6,5,85,new,new,cr,925,
1,11,20,female,native,psychology,1,2,6,6,85,old,old,hit,1109,
1,11,20,female,native,psychology,1,2,6,7,85,new,new,cr,2524,
1,11,20,female,native,psychology,1,2,6,8,85,old,old,hit,896,
1,11,20,female,native,psychology,1,2,6,9,85,old,old,hit,793,
1,11,20,female,native,psychology,1,2,6,10,85,old,old,hit,598,
1,11,20,female,native,psychology,1,2,6,11,85,old,old,hit,682,
1,11,20,female,native,psychology,1,2,6,12,85,old,old,hit,1468,
1,11,20,female,native,psychology,1,2,6,13,85,old,old,hit,765,
1,11,20,female,native,psychology,1,2,6,14,85,old,old,hit,851,
1,11,20,female,native,psychology,1,2,6,15,85,new,new,cr,989,
1,11,20,female,native,psychology,1,2,6,16,85,old,new,miss,1090,
1,11,20,female,native,psychology,1,2,6,17,85,old,old,hit,826,
1,11,20,female,native,psychology,1,2,6,18,85,old,old,hit,765,
1,11,20,female,native,psychology,1,2,6,19,85,old,old,hit,643,
1,11,20,female,native,psychology,1,2,6,20,85,old,old,hit,1246,
1,11,20,female,native,psychology,1,2,6,21,85,old,old,hit,584,
1,11,20,female,native,psychology,1,2,6,22,85,new,new,cr,2205,
1,11,20,female,native,psychology,1,2,6,23,85,old,new,miss,976,
1,11,20,female,native,psychology,1,2,6,24,85,old,old,hit,781,
1,11,20,female,native,psychology,1,2,6,25,85,old,old,hit,2194,
1,11,20,female,native,psychology,1,2,6,26,85,old,old,hit,749,
1,11,20,female,native,psychology,1,2,6,27,85,old,old,hit,643,
1,11,20,female,native,psychology,1,2,6,28,85,old,old,hit,1006,
1,11,20,female,native,psychology,1,2,6,29,85,old,old,hit,650,
1,11,20,female,native,psychology,1,2,6,30,85,new,new,cr,3285,
1,11,20,female,native,psychology,1,2,6,31,85,old,old,hit,2218,
1,11,20,female,native,psychology,1,2,6,32,85,old,old,hit,684,
1,11,20,female,native,psychology,1,2,6,33,85,new,new,cr,1197,
1,11,20,female,native,psychology,1,2,6,34,85,old,old,hit,768,
1,11,20,female,native,psychology,1,2,6,35,85,old,old,hit,1142,
1,11,20,female,native,psychology,1,2,6,36,85,old,old,hit,716,
1,11,20,female,native,psychology,1,2,6,37,85,old,old,hit,692,
1,11,20,female,native,psychology,1,2,6,38,85,old,old,hit,893,
1,11,20,female,native,psychology,1,2,6,39,85,old,old,hit,733,
1,11,20,female,native,psychology,1,2,6,40,85,old,old,hit,1293,
1,11,20,female,native,psychology,1,2,6,41,85,old,old,hit,597,
1,11,20,female,native,psychology,1,2,6,42,85,old,old,hit,874,
1,11,20,female,native,psychology,1,2,6,43,85,old,old,hit,947,
1,11,20,female,native,psychology,1,2,6,44,85,old,old,hit,705,
1,11,20,female,native,psychology,1,2,6,45,85,old,old,hit,2145,
1,11,20,female,native,psychology,1,2,6,46,85,old,old,hit,686,
1,11,20,female,native,psychology,1,2,6,47,85,old,old,hit,807,
1,11,20,female,native,psychology,1,2,6,48,85,new,new,cr,1043,
1,11,20,female,native,psychology,1,2,6,49,85,old,old,hit,709,
1,11,20,female,native,psychology,1,2,6,50,85,old,new,miss,949,
1,11,20,female,native,psychology,1,2,6,51,85,old,old,hit,692,
1,11,20,female,native,psychology,1,2,6,52,85,new,new,cr,1037,
1,11,20,female,native,psychology,1,2,6,53,85,old,old,hit,975,
1,11,20,female,native,psychology,1,2,6,54,85,old,old,hit,628,
1,11,20,female,native,psychology,1,2,6,55,85,old,old,hit,1288,
1,11,20,female,native,psychology,1,2,6,56,85,old,old,hit,608,
1,11,20,female,native,psychology,1,2,6,57,85,old,old,hit,1236,
1,11,20,female,native,psychology,1,2,6,58,85,new,new,cr,1343,
1,11,20,female,native,psychology,1,2,6,59,85,old,old,hit,788,
1,11,20,female,native,psychology,1,2,6,60,85,old,old,hit,1233,
1,11,20,female,native,psychology,1,2,6,61,85,old,old,hit,676,
1,11,20,female,native,psychology,1,2,6,62,85,new,new,cr,829,
1,11,20,female,native,psychology,1,2,6,63,85,old,old,hit,848,
1,11,20,female,native,psychology,1,2,6,64,85,new,new,cr,1731,
1,11,20,female,native,psychology,1,2,6,65,85,old,old,hit,721,
1,11,20,female,native,psychology,1,2,6,66,85,old,old,hit,816,
1,11,20,female,native,psychology,1,2,6,67,85,old,new,miss,1780,
1,11,20,female,native,psychology,1,2,6,68,85,old,old,hit,704,
1,11,20,female,native,psychology,1,2,6,69,85,old,old,hit,584,
1,11,20,female,native,psychology,1,2,6,70,85,old,old,hit,726,
1,11,20,female,native,psychology,1,2,6,71,85,old,old,hit,789,
1,11,20,female,native,psychology,1,2,6,72,85,old,old,hit,1946,
1,11,20,female,native,psychology,1,2,6,73,85,old,old,hit,1295,
1,11,20,female,native,psychology,1,2,6,74,85,old,old,hit,742,
1,11,20,female,native,psychology,1,2,6,75,85,old,old,hit,636,
1,11,20,female,native,psychology,1,2,6,76,85,new,new,cr,3575,
1,11,20,female,native,psychology,1,2,6,77,85,old,old,hit,752,
1,11,20,female,native,psychology,1,2,6,78,85,old,old,hit,631,
1,11,20,female,native,psychology,1,2,6,79,85,old,old,hit,578,
1,11,20,female,native,psychology,1,2,6,80,85,old,old,hit,712,
1,11,20,female,native,psychology,1,2,6,81,85,old,old,hit,952,
1,11,20,female,native,psychology,1,2,6,82,85,old,old,hit,662,
1,11,20,female,native,psychology,1,2,6,83,85,new,new,cr,1425,
1,11,20,female,native,psychology,1,2,6,84,85,old,old,hit,851,
1,11,20,female,native,psychology,1,2,6,85,85,old,old,hit,605,
1,11,20,female,native,psychology,1,2,6,86,85,old,old,hit,1018,
1,11,20,female,native,psychology,1,2,6,87,85,new,new,cr,1701,
1,11,20,female,native,psychology,1,2,6,88,85,old,old,hit,1164,
1,11,20,female,native,psychology,1,2,6,89,85,old,old,hit,930,
1,11,20,female,native,psychology,1,2,6,90,85,old,old,hit,937,
1,11,20,female,native,psychology,1,2,6,91,85,old,new,miss,3592,
1,11,20,female,native,psychology,1,2,6,92,85,new,new,cr,1168,
1,11,20,female,native,psychology,1,2,6,93,85,old,old,hit,717,
1,11,20,female,native,psychology,1,2,6,94,85,old,old,hit,1278,
1,11,20,female,native,psychology,1,2,6,95,85,old,old,hit,934,
1,11,20,female,native,psychology,1,2,6,96,85,old,old,hit,709,
1,11,20,female,native,psychology,1,2,6,97,85,old,old,hit,925,
1,11,20,female,native,psychology,1,2,6,98,85,old,new,miss,1212,
1,11,20,female,native,psychology,1,2,6,99,85,old,old,hit,2328,
1,11,20,female,native,psychology,1,2,6,100,85,old,old,hit,628,
1,11,20,female,native,psychology,1,2,7,1,75,new,new,cr,921,
1,11,20,female,native,psychology,1,2,7,2,75,new,new,cr,1328,
1,11,20,female,native,psychology,1,2,7,3,75,old,old,hit,646,
1,11,20,female,native,psychology,1,2,7,4,75,old,old,hit,681,
1,11,20,female,native,psychology,1,2,7,5,75,old,old,hit,762,
1,11,20,female,native,psychology,1,2,7,6,75,old,old,hit,544,
1,11,20,female,native,psychology,1,2,7,7,75,new,old,fa,759,
1,11,20,female,native,psychology,1,2,7,8,75,new,new,cr,1285,
1,11,20,female,native,psychology,1,2,7,9,75,old,old,hit,710,
1,11,20,female,native,psychology,1,2,7,10,75,old,old,hit,1126,
1,11,20,female,native,psychology,1,2,7,11,75,old,old,hit,612,
1,11,20,female,native,psychology,1,2,7,12,75,new,new,cr,1121,
1,11,20,female,native,psychology,1,2,7,13,75,old,old,hit,736,
1,11,20,female,native,psychology,1,2,7,14,75,old,old,hit,663,
1,11,20,female,native,psychology,1,2,7,15,75,old,old,hit,625,
1,11,20,female,native,psychology,1,2,7,16,75,old,old,hit,725,
1,11,20,female,native,psychology,1,2,7,17,75,old,old,hit,588,
1,11,20,female,native,psychology,1,2,7,18,75,old,old,hit,1049,
1,11,20,female,native,psychology,1,2,7,19,75,old,old,hit,867,
1,11,20,female,native,psychology,1,2,7,20,75,old,old,hit,741,
1,11,20,female,native,psychology,1,2,7,21,75,old,old,hit,700,
1,11,20,female,native,psychology,1,2,7,22,75,old,old,hit,637,
1,11,20,female,native,psychology,1,2,7,23,75,old,old,hit,792,
1,11,20,female,native,psychology,1,2,7,24,75,old,old,hit,629,
1,11,20,female,native,psychology,1,2,7,25,75,new,new,cr,1048,
1,11,20,female,native,psychology,1,2,7,26,75,old,old,hit,634,
1,11,20,female,native,psychology,1,2,7,27,75,new,old,fa,1094,
1,11,20,female,native,psychology,1,2,7,28,75,new,old,fa,1102,
1,11,20,female,native,psychology,1,2,7,29,75,old,old,hit,670,
1,11,20,female,native,psychology,1,2,7,30,75,new,old,fa,2216,
1,11,20,female,native,psychology,1,2,7,31,75,old,old,hit,705,
1,11,20,female,native,psychology,1,2,7,32,75,old,old,hit,1474,
1,11,20,female,native,psychology,1,2,7,33,75,old,old,hit,730,
1,11,20,female,native,psychology,1,2,7,34,75,old,old,hit,817,
1,11,20,female,native,psychology,1,2,7,35,75,old,old,hit,941,
1,11,20,female,native,psychology,1,2,7,36,75,old,old,hit,707,
1,11,20,female,native,psychology,1,2,7,37,75,new,old,fa,1284,
1,11,20,female,native,psychology,1,2,7,38,75,old,old,hit,812,
1,11,20,female,native,psychology,1,2,7,39,75,old,old,hit,752,
1,11,20,female,native,psychology,1,2,7,40,75,old,old,hit,1167,
1,11,20,female,native,psychology,1,2,7,41,75,old,old,hit,2108,
1,11,20,female,native,psychology,1,2,7,42,75,old,old,hit,785,
1,11,20,female,native,psychology,1,2,7,43,75,new,new,cr,918,
1,11,20,female,native,psychology,1,2,7,44,75,new,new,cr,1030,
1,11,20,female,native,psychology,1,2,7,45,75,old,new,miss,4121,
1,11,20,female,native,psychology,1,2,7,46,75,old,old,hit,820,
1,11,20,female,native,psychology,1,2,7,47,75,old,old,hit,727,
1,11,20,female,native,psychology,1,2,7,48,75,old,old,hit,679,
1,11,20,female,native,psychology,1,2,7,49,75,old,old,hit,672,
1,11,20,female,native,psychology,1,2,7,50,75,old,old,hit,666,
1,11,20,female,native,psychology,1,2,7,51,75,new,new,cr,2260,
1,11,20,female,native,psychology,1,2,7,52,75,old,old,hit,3676,
1,11,20,female,native,psychology,1,2,7,53,75,new,new,cr,1072,
1,11,20,female,native,psychology,1,2,7,54,75,old,old,hit,665,
1,11,20,female,native,psychology,1,2,7,55,75,old,old,hit,1347,
1,11,20,female,native,psychology,1,2,7,56,75,old,old,hit,673,
1,11,20,female,native,psychology,1,2,7,57,75,old,old,hit,538,
1,11,20,female,native,psychology,1,2,7,58,75,new,new,cr,1121,
1,11,20,female,native,psychology,1,2,7,59,75,old,old,hit,1016,
1,11,20,female,native,psychology,1,2,7,60,75,old,old,hit,948,
1,11,20,female,native,psychology,1,2,7,61,75,old,old,hit,570,
1,11,20,female,native,psychology,1,2,7,62,75,old,old,hit,720,
1,11,20,female,native,psychology,1,2,7,63,75,old,old,hit,688,
1,11,20,female,native,psychology,1,2,7,64,75,new,new,cr,1857,
1,11,20,female,native,psychology,1,2,7,65,75,old,old,hit,1521,
1,11,20,female,native,psychology,1,2,7,66,75,new,new,cr,984,
1,11,20,female,native,psychology,1,2,7,67,75,old,old,hit,805,
1,11,20,female,native,psychology,1,2,7,68,75,old,old,hit,1105,
1,11,20,female,native,psychology,1,2,7,69,75,old,old,hit,2392,
1,11,20,female,native,psychology,1,2,7,70,75,old,old,hit,986,
1,11,20,female,native,psychology,1,2,7,71,75,old,old,hit,743,
1,11,20,female,native,psychology,1,2,7,72,75,old,old,hit,1590,
1,11,20,female,native,psychology,1,2,7,73,75,new,new,cr,961,
1,11,20,female,native,psychology,1,2,7,74,75,old,old,hit,903,
1,11,20,female,native,psychology,1,2,7,75,75,old,old,hit,1039,
1,11,20,female,native,psychology,1,2,7,76,75,old,old,hit,1794,
1,11,20,female,native,psychology,1,2,7,77,75,new,new,cr,829,
1,11,20,female,native,psychology,1,2,7,78,75,old,old,hit,2151,
1,11,20,female,native,psychology,1,2,7,79,75,old,old,hit,763,
1,11,20,female,native,psychology,1,2,7,80,75,new,new,cr,905,
1,11,20,female,native,psychology,1,2,7,81,75,old,old,hit,1097,
1,11,20,female,native,psychology,1,2,7,82,75,new,old,fa,2505,
1,11,20,female,native,psychology,1,2,7,83,75,new,new,cr,1159,
1,11,20,female,native,psychology,1,2,7,84,75,new,new,cr,1932,
1,11,20,female,native,psychology,1,2,7,85,75,old,old,hit,650,
1,11,20,female,native,psychology,1,2,7,86,75,old,old,hit,3157,
1,11,20,female,native,psychology,1,2,7,87,75,old,old,hit,672,
1,11,20,female,native,psychology,1,2,7,88,75,old,new,miss,1145,
1,11,20,female,native,psychology,1,2,7,89,75,new,new,cr,983,
1,11,20,female,native,psychology,1,2,7,90,75,old,old,hit,908,
1,11,20,female,native,psychology,1,2,7,91,75,old,old,hit,924,
1,11,20,female,native,psychology,1,2,7,92,75,old,old,hit,811,
1,11,20,female,native,psychology,1,2,7,93,75,old,old,hit,839,
1,11,20,female,native,psychology,1,2,7,94,75,old,old,hit,801,
1,11,20,female,native,psychology,1,2,7,95,75,old,old,hit,790,
1,11,20,female,native,psychology,1,2,7,96,75,new,new,cr,2587,
1,11,20,female,native,psychology,1,2,7,97,75,old,old,hit,749,
1,11,20,female,native,psychology,1,2,7,98,75,old,new,miss,1412,
1,11,20,female,native,psychology,1,2,7,99,75,old,old,hit,1079,
1,11,20,female,native,psychology,1,2,7,100,75,old,new,miss,2752,
1,11,20,female,native,psychology,1,3,8,1,85,old,new,miss,2567,
1,11,20,female,native,psychology,1,3,8,2,85,old,new,miss,1482,
1,11,20,female,native,psychology,1,3,8,3,85,new,new,cr,947,
1,11,20,female,native,psychology,1,3,8,4,85,old,old,hit,705,
1,11,20,female,native,psychology,1,3,8,5,85,old,old,hit,785,
1,11,20,female,native,psychology,1,3,8,6,85,old,old,hit,614,
1,11,20,female,native,psychology,1,3,8,7,85,old,old,hit,627,
1,11,20,female,native,psychology,1,3,8,8,85,old,old,hit,606,
1,11,20,female,native,psychology,1,3,8,9,85,old,old,hit,667,
1,11,20,female,native,psychology,1,3,8,10,85,new,new,cr,965,
1,11,20,female,native,psychology,1,3,8,11,85,old,old,hit,682,
1,11,20,female,native,psychology,1,3,8,12,85,old,old,hit,740,
1,11,20,female,native,psychology,1,3,8,13,85,old,old,hit,923,
1,11,20,female,native,psychology,1,3,8,14,85,old,old,hit,4938,
1,11,20,female,native,psychology,1,3,8,15,85,old,old,hit,738,
1,11,20,female,native,psychology,1,3,8,16,85,new,new,cr,1041,
1,11,20,female,native,psychology,1,3,8,17,85,old,old,hit,619,
1,11,20,female,native,psychology,1,3,8,18,85,old,old,hit,799,
1,11,20,female,native,psychology,1,3,8,19,85,old,old,hit,651,
1,11,20,female,native,psychology,1,3,8,20,85,old,old,hit,646,
1,11,20,female,native,psychology,1,3,8,21,85,old,old,hit,641,
1,11,20,female,native,psychology,1,3,8,22,85,old,old,hit,612,
1,11,20,female,native,psychology,1,3,8,23,85,old,old,hit,1040,
1,11,20,female,native,psychology,1,3,8,24,85,old,old,hit,730,
1,11,20,female,native,psychology,1,3,8,25,85,old,old,hit,3762,
1,11,20,female,native,psychology,1,3,8,26,85,old,old,hit,675,
1,11,20,female,native,psychology,1,3,8,27,85,new,new,cr,1509,
1,11,20,female,native,psychology,1,3,8,28,85,old,old,hit,659,
1,11,20,female,native,psychology,1,3,8,29,85,new,new,cr,1142,
1,11,20,female,native,psychology,1,3,8,30,85,old,old,hit,700,
1,11,20,female,native,psychology,1,3,8,31,85,old,old,hit,885,
1,11,20,female,native,psychology,1,3,8,32,85,old,old,hit,886,
1,11,20,female,native,psychology,1,3,8,33,85,old,old,hit,775,
1,11,20,female,native,psychology,1,3,8,34,85,old,old,hit,556,
1,11,20,female,native,psychology,1,3,8,35,85,old,old,hit,963,
1,11,20,female,native,psychology,1,3,8,36,85,old,old,hit,656,
1,11,20,female,native,psychology,1,3,8,37,85,old,old,hit,650,
1,11,20,female,native,psychology,1,3,8,38,85,new,new,cr,900,
1,11,20,female,native,psychology,1,3,8,39,85,old,old,hit,1325,
1,11,20,female,native,psychology,1,3,8,40,85,old,old,hit,1403,
1,11,20,female,native,psychology,1,3,8,41,85,new,new,cr,927,
1,11,20,female,native,psychology,1,3,8,42,85,old,old,hit,1086,
1,11,20,female,native,psychology,1,3,8,43,85,old,old,hit,1079,
1,11,20,female,native,psychology,1,3,8,44,85,old,old,hit,752,
1,11,20,female,native,psychology,1,3,8,45,85,old,old,hit,750,
1,11,20,female,native,psychology,1,3,8,46,85,old,old,hit,645,
1,11,20,female,native,psychology,1,3,8,47,85,old,old,hit,872,
1,11,20,female,native,psychology,1,3,8,48,85,new,new,cr,809,
1,11,20,female,native,psychology,1,3,8,49,85,new,old,fa,3205,
1,11,20,female,native,psychology,1,3,8,50,85,old,old,hit,670,
1,11,20,female,native,psychology,1,3,8,51,85,old,old,hit,1136,
1,11,20,female,native,psychology,1,3,8,52,85,old,old,hit,1439,
1,11,20,female,native,psychology,1,3,8,53,85,old,old,hit,945,
1,11,20,female,native,psychology,1,3,8,54,85,old,old,hit,775,
1,11,20,female,native,psychology,1,3,8,55,85,old,old,hit,860,
1,11,20,female,native,psychology,1,3,8,56,85,old,old,hit,598,
1,11,20,female,native,psychology,1,3,8,57,85,old,old,hit,883,
1,11,20,female,native,psychology,1,3,8,58,85,old,old,hit,812,
1,11,20,female,native,psychology,1,3,8,59,85,old,old,hit,503,
1,11,20,female,native,psychology,1,3,8,60,85,old,old,hit,1880,
1,11,20,female,native,psychology,1,3,8,61,85,old,old,hit,1223,
1,11,20,female,native,psychology,1,3,8,62,85,old,new,miss,770,
1,11,20,female,native,psychology,1,3,8,63,85,old,old,hit,672,
1,11,20,female,native,psychology,1,3,8,64,85,old,old,hit,2153,
1,11,20,female,native,psychology,1,3,8,65,85,old,old,hit,1174,
1,11,20,female,native,psychology,1,3,8,66,85,old,old,hit,699,
1,11,20,female,native,psychology,1,3,8,67,85,old,old,hit,723,
1,11,20,female,native,psychology,1,3,8,68,85,old,old,hit,1827,
1,11,20,female,native,psychology,1,3,8,69,85,new,new,cr,1637,
1,11,20,female,native,psychology,1,3,8,70,85,old,old,hit,638,
1,11,20,female,native,psychology,1,3,8,71,85,old,old,hit,833,
1,11,20,female,native,psychology,1,3,8,72,85,old,old,hit,629,
1,11,20,female,native,psychology,1,3,8,73,85,new,new,cr,1152,
1,11,20,female,native,psychology,1,3,8,74,85,old,old,hit,758,
1,11,20,female,native,psychology,1,3,8,75,85,new,new,cr,908,
1,11,20,female,native,psychology,1,3,8,76,85,old,old,hit,1196,
1,11,20,female,native,psychology,1,3,8,77,85,old,old,hit,712,
1,11,20,female,native,psychology,1,3,8,78,85,old,old,hit,807,
1,11,20,female,native,psychology,1,3,8,79,85,old,old,hit,1659,
1,11,20,female,native,psychology,1,3,8,80,85,old,old,hit,1044,
1,11,20,female,native,psychology,1,3,8,81,85,old,old,hit,1294,
1,11,20,female,native,psychology,1,3,8,82,85,old,old,hit,1342,
1,11,20,female,native,psychology,1,3,8,83,85,old,old,hit,1052,
1,11,20,female,native,psychology,1,3,8,84,85,new,new,cr,1078,
1,11,20,female,native,psychology,1,3,8,85,85,old,old,hit,839,
1,11,20,female,native,psychology,1,3,8,86,85,new,old,fa,2073,
1,11,20,female,native,psychology,1,3,8,87,85,new,new,cr,2577,
1,11,20,female,native,psychology,1,3,8,88,85,old,old,hit,635,
1,11,20,female,native,psychology,1,3,8,89,85,old,old,hit,759,
1,11,20,female,native,psychology,1,3,8,90,85,old,old,hit,1325,
1,11,20,female,native,psychology,1,3,8,91,85,old,old,hit,1147,
1,11,20,female,native,psychology,1,3,8,92,85,old,old,hit,649,
1,11,20,female,native,psychology,1,3,8,93,85,old,old,hit,980,
1,11,20,female,native,psychology,1,3,8,94,85,old,old,hit,1025,
1,11,20,female,native,psychology,1,3,8,95,85,old,old,hit,804,
1,11,20,female,native,psychology,1,3,8,96,85,old,old,hit,969,
1,11,20,female,native,psychology,1,3,8,97,85,old,old,hit,646,
1,11,20,female,native,psychology,1,3,8,98,85,old,old,hit,1856,
1,11,20,female,native,psychology,1,3,8,99,85,old,new,miss,1040,
1,11,20,female,native,psychology,1,3,8,100,85,old,old,hit,771,
1,11,20,female,native,psychology,1,3,9,1,15,new,new,cr,1667,
1,11,20,female,native,psychology,1,3,9,2,15,new,new,cr,1347,
1,11,20,female,native,psychology,1,3,9,3,15,new,new,cr,809,
1,11,20,female,native,psychology,1,3,9,4,15,new,new,cr,797,
1,11,20,female,native,psychology,1,3,9,5,15,new,new,cr,1121,
1,11,20,female,native,psychology,1,3,9,6,15,new,new,cr,1288,
1,11,20,female,native,psychology,1,3,9,7,15,new,new,cr,632,
1,11,20,female,native,psychology,1,3,9,8,15,old,old,hit,652,
1,11,20,female,native,psychology,1,3,9,9,15,new,new,cr,1350,
1,11,20,female,native,psychology,1,3,9,10,15,new,new,cr,708,
1,11,20,female,native,psychology,1,3,9,11,15,new,new,cr,716,
1,11,20,female,native,psychology,1,3,9,12,15,new,new,cr,972,
1,11,20,female,native,psychology,1,3,9,13,15,new,new,cr,1721,
1,11,20,female,native,psychology,1,3,9,14,15,new,new,cr,744,
1,11,20,female,native,psychology,1,3,9,15,15,old,old,hit,839,
1,11,20,female,native,psychology,1,3,9,16,15,new,new,cr,881,
1,11,20,female,native,psychology,1,3,9,17,15,old,old,hit,770,
1,11,20,female,native,psychology,1,3,9,18,15,new,new,cr,936,
1,11,20,female,native,psychology,1,3,9,19,15,new,old,fa,1672,
1,11,20,female,native,psychology,1,3,9,20,15,new,new,cr,1440,
1,11,20,female,native,psychology,1,3,9,21,15,new,new,cr,1897,
1,11,20,female,native,psychology,1,3,9,22,15,new,new,cr,2008,
1,11,20,female,native,psychology,1,3,9,23,15,new,new,cr,1730,
1,11,20,female,native,psychology,1,3,9,24,15,new,new,cr,823,
1,11,20,female,native,psychology,1,3,9,25,15,old,old,hit,755,
1,11,20,female,native,psychology,1,3,9,26,15,new,new,cr,857,
1,11,20,female,native,psychology,1,3,9,27,15,new,new,cr,867,
1,11,20,female,native,psychology,1,3,9,28,15,new,new,cr,653,
1,11,20,female,native,psychology,1,3,9,29,15,new,new,cr,2503,
1,11,20,female,native,psychology,1,3,9,30,15,new,new,cr,757,
1,11,20,female,native,psychology,1,3,9,31,15,old,old,hit,827,
1,11,20,female,native,psychology,1,3,9,32,15,new,new,cr,799,
1,11,20,female,native,psychology,1,3,9,33,15,new,new,cr,1779,
1,11,20,female,native,psychology,1,3,9,34,15,new,new,cr,1895,
1,11,20,female,native,psychology,1,3,9,35,15,new,new,cr,3934,
1,11,20,female,native,psychology,1,3,9,36,15,old,old,hit,1472,
1,11,20,female,native,psychology,1,3,9,37,15,new,new,cr,2072,
1,11,20,female,native,psychology,1,3,9,38,15,new,new,cr,992,
1,11,20,female,native,psychology,1,3,9,39,15,new,new,cr,2309,
1,11,20,female,native,psychology,1,3,9,40,15,new,new,cr,817,
1,11,20,female,native,psychology,1,3,9,41,15,new,new,cr,693,
1,11,20,female,native,psychology,1,3,9,42,15,new,new,cr,2894,
1,11,20,female,native,psychology,1,3,9,43,15,new,new,cr,699,
1,11,20,female,native,psychology,1,3,9,44,15,old,new,miss,628,
1,11,20,female,native,psychology,1,3,9,45,15,new,new,cr,712,
1,11,20,female,native,psychology,1,3,9,46,15,new,new,cr,768,
1,11,20,female,native,psychology,1,3,9,47,15,new,new,cr,1614,
1,11,20,female,native,psychology,1,3,9,48,15,new,new,cr,936,
1,11,20,female,native,psychology,1,3,9,49,15,new,new,cr,992,
1,11,20,female,native,psychology,1,3,9,50,15,new,new,cr,740,
1,11,20,female,native,psychology,1,3,9,51,15,new,new,cr,867,
1,11,20,female,native,psychology,1,3,9,52,15,old,old,hit,772,
1,11,20,female,native,psychology,1,3,9,53,15,new,new,cr,1050,
1,11,20,female,native,psychology,1,3,9,54,15,new,new,cr,860,
1,11,20,female,native,psychology,1,3,9,55,15,new,new,cr,3598,
1,11,20,female,native,psychology,1,3,9,56,15,new,new,cr,702,
1,11,20,female,native,psychology,1,3,9,57,15,new,new,cr,687,
1,11,20,female,native,psychology,1,3,9,58,15,old,old,hit,712,
1,11,20,female,native,psychology,1,3,9,59,15,new,new,cr,1040,
1,11,20,female,native,psychology,1,3,9,60,15,new,new,cr,1706,
1,11,20,female,native,psychology,1,3,9,61,15,new,new,cr,904,
1,11,20,female,native,psychology,1,3,9,62,15,old,old,hit,1232,
1,11,20,female,native,psychology,1,3,9,63,15,new,new,cr,2323,
1,11,20,female,native,psychology,1,3,9,64,15,new,new,cr,1200,
1,11,20,female,native,psychology,1,3,9,65,15,new,new,cr,796,
1,11,20,female,native,psychology,1,3,9,66,15,new,new,cr,1537,
1,11,20,female,native,psychology,1,3,9,67,15,new,new,cr,1799,
1,11,20,female,native,psychology,1,3,9,68,15,new,new,cr,1082,
1,11,20,female,native,psychology,1,3,9,69,15,new,new,cr,3299,
1,11,20,female,native,psychology,1,3,9,70,15,new,new,cr,2784,
1,11,20,female,native,psychology,1,3,9,71,15,old,old,hit,1034,
1,11,20,female,native,psychology,1,3,9,72,15,new,new,cr,4245,
1,11,20,female,native,psychology,1,3,9,73,15,new,new,cr,706,
1,11,20,female,native,psychology,1,3,9,74,15,new,new,cr,930,
1,11,20,female,native,psychology,1,3,9,75,15,old,old,hit,1489,
1,11,20,female,native,psychology,1,3,9,76,15,new,new,cr,1464,
1,11,20,female,native,psychology,1,3,9,77,15,new,new,cr,952,
1,11,20,female,native,psychology,1,3,9,78,15,new,new,cr,1287,
1,11,20,female,native,psychology,1,3,9,79,15,new,new,cr,3959,
1,11,20,female,native,psychology,1,3,9,80,15,new,new,cr,864,
1,11,20,female,native,psychology,1,3,9,81,15,old,old,hit,722,
1,11,20,female,native,psychology,1,3,9,82,15,new,new,cr,770,
1,11,20,female,native,psychology,1,3,9,83,15,new,new,cr,856,
1,11,20,female,native,psychology,1,3,9,84,15,new,new,cr,1641,
1,11,20,female,native,psychology,1,3,9,85,15,new,new,cr,2515,
1,11,20,female,native,psychology,1,3,9,86,15,new,new,cr,720,
1,11,20,female,native,psychology,1,3,9,87,15,old,old,hit,1280,
1,11,20,female,native,psychology,1,3,9,88,15,new,new,cr,2129,
1,11,20,female,native,psychology,1,3,9,89,15,new,new,cr,638,
1,11,20,female,native,psychology,1,3,9,90,15,old,old,hit,1225,
1,11,20,female,native,psychology,1,3,9,91,15,new,new,cr,763,
1,11,20,female,native,psychology,1,3,9,92,15,new,new,cr,1737,
1,11,20,female,native,psychology,1,3,9,93,15,new,new,cr,943,
1,11,20,female,native,psychology,1,3,9,94,15,new,new,cr,1517,
1,11,20,female,native,psychology,1,3,9,95,15,new,new,cr,643,
1,11,20,female,native,psychology,1,3,9,96,15,new,new,cr,814,
1,11,20,female,native,psychology,1,3,9,97,15,new,new,cr,970,
1,11,20,female,native,psychology,1,3,9,98,15,new,new,cr,1512,
1,11,20,female,native,psychology,1,3,9,99,15,new,new,cr,1223,
1,11,20,female,native,psychology,1,3,9,100,15,new,new,cr,2137,
1,11,20,female,native,psychology,1,3,10,1,25,new,new,cr,990,
1,11,20,female,native,psychology,1,3,10,2,25,new,new,cr,1459,
1,11,20,female,native,psychology,1,3,10,3,25,new,new,cr,603,
1,11,20,female,native,psychology,1,3,10,4,25,new,new,cr,936,
1,11,20,female,native,psychology,1,3,10,5,25,old,old,hit,823,
1,11,20,female,native,psychology,1,3,10,6,25,new,new,cr,810,
1,11,20,female,native,psychology,1,3,10,7,25,new,new,cr,654,
1,11,20,female,native,psychology,1,3,10,8,25,new,new,cr,576,
1,11,20,female,native,psychology,1,3,10,9,25,new,new,cr,1502,
1,11,20,female,native,psychology,1,3,10,10,25,new,new,cr,725,
1,11,20,female,native,psychology,1,3,10,11,25,old,old,hit,773,
1,11,20,female,native,psychology,1,3,10,12,25,new,new,cr,882,
1,11,20,female,native,psychology,1,3,10,13,25,old,new,miss,2035,
1,11,20,female,native,psychology,1,3,10,14,25,new,new,cr,693,
1,11,20,female,native,psychology,1,3,10,15,25,new,new,cr,933,
1,11,20,female,native,psychology,1,3,10,16,25,old,old,hit,837,
1,11,20,female,native,psychology,1,3,10,17,25,old,old,hit,744,
1,11,20,female,native,psychology,1,3,10,18,25,new,new,cr,735,
1,11,20,female,native,psychology,1,3,10,19,25,new,new,cr,1110,
1,11,20,female,native,psychology,1,3,10,20,25,new,new,cr,2020,
1,11,20,female,native,psychology,1,3,10,21,25,new,new,cr,670,
1,11,20,female,native,psychology,1,3,10,22,25,new,new,cr,688,
1,11,20,female,native,psychology,1,3,10,23,25,new,new,cr,1097,
1,11,20,female,native,psychology,1,3,10,24,25,new,new,cr,2721,
1,11,20,female,native,psychology,1,3,10,25,25,new,new,cr,750,
1,11,20,female,native,psychology,1,3,10,26,25,new,new,cr,741,
1,11,20,female,native,psychology,1,3,10,27,25,old,old,hit,811,
1,11,20,female,native,psychology,1,3,10,28,25,new,new,cr,1335,
1,11,20,female,native,psychology,1,3,10,29,25,new,new,cr,886,
1,11,20,female,native,psychology,1,3,10,30,25,old,old,hit,3895,
1,11,20,female,native,psychology,1,3,10,31,25,new,new,cr,707,
1,11,20,female,native,psychology,1,3,10,32,25,new,new,cr,1027,
1,11,20,female,native,psychology,1,3,10,33,25,new,new,cr,878,
1,11,20,female,native,psychology,1,3,10,34,25,new,new,cr,639,
1,11,20,female,native,psychology,1,3,10,35,25,new,new,cr,714,
1,11,20,female,native,psychology,1,3,10,36,25,old,old,hit,674,
1,11,20,female,native,psychology,1,3,10,37,25,old,new,miss,1763,
1,11,20,female,native,psychology,1,3,10,38,25,old,old,hit,1128,
1,11,20,female,native,psychology,1,3,10,39,25,new,new,cr,574,
1,11,20,female,native,psychology,1,3,10,40,25,new,new,cr,644,
1,11,20,female,native,psychology,1,3,10,41,25,old,old,hit,2238,
1,11,20,female,native,psychology,1,3,10,42,25,new,new,cr,783,
1,11,20,female,native,psychology,1,3,10,43,25,new,new,cr,628,
1,11,20,female,native,psychology,1,3,10,44,25,new,new,cr,928,
1,11,20,female,native,psychology,1,3,10,45,25,new,new,cr,951,
1,11,20,female,native,psychology,1,3,10,46,25,old,old,hit,733,
1,11,20,female,native,psychology,1,3,10,47,25,new,new,cr,765,
1,11,20,female,native,psychology,1,3,10,48,25,new,new,cr,755,
1,11,20,female,native,psychology,1,3,10,49,25,old,new,miss,801,
1,11,20,female,native,psychology,1,3,10,50,25,new,new,cr,2606,
1,11,20,female,native,psychology,1,3,10,51,25,new,new,cr,695,
1,11,20,female,native,psychology,1,3,10,52,25,new,new,cr,2160,
1,11,20,female,native,psychology,1,3,10,53,25,old,old,hit,1708,
1,11,20,female,native,psychology,1,3,10,54,25,new,new,cr,1178,
1,11,20,female,native,psychology,1,3,10,55,25,new,new,cr,783,
1,11,20,female,native,psychology,1,3,10,56,25,new,old,fa,1964,
1,11,20,female,native,psychology,1,3,10,57,25,new,new,cr,1049,
1,11,20,female,native,psychology,1,3,10,58,25,new,new,cr,1195,
1,11,20,female,native,psychology,1,3,10,59,25,new,new,cr,694,
1,11,20,female,native,psychology,1,3,10,60,25,old,new,miss,3327,
1,11,20,female,native,psychology,1,3,10,61,25,new,new,cr,898,
1,11,20,female,native,psychology,1,3,10,62,25,new,new,cr,3202,
1,11,20,female,native,psychology,1,3,10,63,25,old,new,miss,667,
1,11,20,female,native,psychology,1,3,10,64,25,new,new,cr,909,
1,11,20,female,native,psychology,1,3,10,65,25,new,new,cr,933,
1,11,20,female,native,psychology,1,3,10,66,25,new,new,cr,852,
1,11,20,female,native,psychology,1,3,10,67,25,new,new,cr,903,
1,11,20,female,native,psychology,1,3,10,68,25,old,old,hit,815,
1,11,20,female,native,psychology,1,3,10,69,25,new,new,cr,851,
1,11,20,female,native,psychology,1,3,10,70,25,new,new,cr,2790,
1,11,20,female,native,psychology,1,3,10,71,25,new,new,cr,1696,
1,11,20,female,native,psychology,1,3,10,72,25,old,old,hit,775,
1,11,20,female,native,psychology,1,3,10,73,25,new,new,cr,740,
1,11,20,female,native,psychology,1,3,10,74,25,new,new,cr,3491,
1,11,20,female,native,psychology,1,3,10,75,25,new,old,fa,3336,
1,11,20,female,native,psychology,1,3,10,76,25,old,old,hit,2938,
1,11,20,female,native,psychology,1,3,10,77,25,new,new,cr,702,
1,11,20,female,native,psychology,1,3,10,78,25,old,old,hit,2407,
1,11,20,female,native,psychology,1,3,10,79,25,new,new,cr,761,
1,11,20,female,native,psychology,1,3,10,80,25,new,new,cr,1455,
1,11,20,female,native,psychology,1,3,10,81,25,new,new,cr,824,
1,11,20,female,native,psychology,1,3,10,82,25,new,new,cr,1595,
1,11,20,female,native,psychology,1,3,10,83,25,new,new,cr,743,
1,11,20,female,native,psychology,1,3,10,84,25,new,new,cr,1742,
1,11,20,female,native,psychology,1,3,10,85,25,new,new,cr,659,
1,11,20,female,native,psychology,1,3,10,86,25,old,new,miss,837,
1,11,20,female,native,psychology,1,3,10,87,25,new,new,cr,1704,
1,11,20,female,native,psychology,1,3,10,88,25,old,new,miss,839,
1,11,20,female,native,psychology,1,3,10,89,25,new,new,cr,754,
1,11,20,female,native,psychology,1,3,10,90,25,new,new,cr,929,
1,11,20,female,native,psychology,1,3,10,91,25,new,new,cr,2328,
1,11,20,female,native,psychology,1,3,10,92,25,new,new,cr,2781,
1,11,20,female,native,psychology,1,3,10,93,25,new,new,cr,3759,
1,11,20,female,native,psychology,1,3,10,94,25,old,old,hit,2809,
1,11,20,female,native,psychology,1,3,10,95,25,old,old,hit,2352,
1,11,20,female,native,psychology,1,3,10,96,25,new,new,cr,781,
1,11,20,female,native,psychology,1,3,10,97,25,new,new,cr,1346,
1,11,20,female,native,psychology,1,3,10,98,25,new,new,cr,800,
1,11,20,female,native,psychology,1,3,10,99,25,old,old,hit,4868,
1,11,20,female,native,psychology,1,3,10,100,25,new,new,cr,736,
1,11,20,female,native,psychology,1,3,11,1,75,old,old,hit,2193,
1,11,20,female,native,psychology,1,3,11,2,75,new,new,cr,763,
1,11,20,female,native,psychology,1,3,11,3,75,old,old,hit,713,
1,11,20,female,native,psychology,1,3,11,4,75,old,old,hit,1049,
1,11,20,female,native,psychology,1,3,11,5,75,old,old,hit,748,
1,11,20,female,native,psychology,1,3,11,6,75,new,new,cr,738,
1,11,20,female,native,psychology,1,3,11,7,75,old,old,hit,705,
1,11,20,female,native,psychology,1,3,11,8,75,old,old,hit,1865,
1,11,20,female,native,psychology,1,3,11,9,75,old,old,hit,737,
1,11,20,female,native,psychology,1,3,11,10,75,old,old,hit,744,
1,11,20,female,native,psychology,1,3,11,11,75,old,old,hit,3415,
1,11,20,female,native,psychology,1,3,11,12,75,old,old,hit,734,
1,11,20,female,native,psychology,1,3,11,13,75,new,new,cr,781,
1,11,20,female,native,psychology,1,3,11,14,75,old,old,hit,546,
1,11,20,female,native,psychology,1,3,11,15,75,old,old,hit,2137,
1,11,20,female,native,psychology,1,3,11,16,75,old,old,hit,1511,
1,11,20,female,native,psychology,1,3,11,17,75,new,new,cr,869,
1,11,20,female,native,psychology,1,3,11,18,75,new,new,cr,775,
1,11,20,female,native,psychology,1,3,11,19,75,old,old,hit,1005,
1,11,20,female,native,psychology,1,3,11,20,75,old,old,hit,872,
1,11,20,female,native,psychology,1,3,11,21,75,new,new,cr,1953,
1,11,20,female,native,psychology,1,3,11,22,75,old,old,hit,2286,
1,11,20,female,native,psychology,1,3,11,23,75,old,new,miss,893,
1,11,20,female,native,psychology,1,3,11,24,75,new,new,cr,1622,
1,11,20,female,native,psychology,1,3,11,25,75,old,old,hit,832,
1,11,20,female,native,psychology,1,3,11,26,75,old,old,hit,900,
1,11,20,female,native,psychology,1,3,11,27,75,old,new,miss,3628,
1,11,20,female,native,psychology,1,3,11,28,75,new,new,cr,3859,
1,11,20,female,native,psychology,1,3,11,29,75,old,old,hit,801,
1,11,20,female,native,psychology,1,3,11,30,75,old,old,hit,540,
1,11,20,female,native,psychology,1,3,11,31,75,old,old,hit,1443,
1,11,20,female,native,psychology,1,3,11,32,75,old,old,hit,669,
1,11,20,female,native,psychology,1,3,11,33,75,old,old,hit,1383,
1,11,20,female,native,psychology,1,3,11,34,75,old,old,hit,724,
1,11,20,female,native,psychology,1,3,11,35,75,new,new,cr,2875,
1,11,20,female,native,psychology,1,3,11,36,75,old,old,hit,673,
1,11,20,female,native,psychology,1,3,11,37,75,old,old,hit,802,
1,11,20,female,native,psychology,1,3,11,38,75,old,new,miss,1943,
1,11,20,female,native,psychology,1,3,11,39,75,old,old,hit,636,
1,11,20,female,native,psychology,1,3,11,40,75,new,new,cr,919,
1,11,20,female,native,psychology,1,3,11,41,75,old,old,hit,647,
1,11,20,female,native,psychology,1,3,11,42,75,old,old,hit,834,
1,11,20,female,native,psychology,1,3,11,43,75,old,old,hit,1741,
1,11,20,female,native,psychology,1,3,11,44,75,old,old,hit,562,
1,11,20,female,native,psychology,1,3,11,45,75,new,new,cr,817,
1,11,20,female,native,psychology,1,3,11,46,75,old,old,hit,853,
1,11,20,female,native,psychology,1,3,11,47,75,old,old,hit,743,
1,11,20,female,native,psychology,1,3,11,48,75,old,old,hit,566,
1,11,20,female,native,psychology,1,3,11,49,75,old,old,hit,772,
1,11,20,female,native,psychology,1,3,11,50,75,old,old,hit,721,
1,11,20,female,native,psychology,1,3,11,51,75,old,old,hit,664,
1,11,20,female,native,psychology,1,3,11,52,75,old,old,hit,818,
1,11,20,female,native,psychology,1,3,11,53,75,new,new,cr,902,
1,11,20,female,native,psychology,1,3,11,54,75,new,new,cr,879,
1,11,20,female,native,psychology,1,3,11,55,75,old,old,hit,800,
1,11,20,female,native,psychology,1,3,11,56,75,new,new,cr,2901,
1,11,20,female,native,psychology,1,3,11,57,75,old,old,hit,746,
1,11,20,female,native,psychology,1,3,11,58,75,old,old,hit,841,
1,11,20,female,native,psychology,1,3,11,59,75,old,old,hit,611,
1,11,20,female,native,psychology,1,3,11,60,75,new,new,cr,1087,
1,11,20,female,native,psychology,1,3,11,61,75,old,old,hit,632,
1,11,20,female,native,psychology,1,3,11,62,75,new,new,cr,1228,
1,11,20,female,native,psychology,1,3,11,63,75,old,old,hit,679,
1,11,20,female,native,psychology,1,3,11,64,75,new,new,cr,896,
1,11,20,female,native,psychology,1,3,11,65,75,old,new,miss,2720,
1,11,20,female,native,psychology,1,3,11,66,75,old,old,hit,677,
1,11,20,female,native,psychology,1,3,11,67,75,old,new,miss,1951,
1,11,20,female,native,psychology,1,3,11,68,75,old,old,hit,868,
1,11,20,female,native,psychology,1,3,11,69,75,old,old,hit,1694,
1,11,20,female,native,psychology,1,3,11,70,75,old,old,hit,709,
1,11,20,female,native,psychology,1,3,11,71,75,old,old,hit,572,
1,11,20,female,native,psychology,1,3,11,72,75,old,old,hit,1042,
1,11,20,female,native,psychology,1,3,11,73,75,old,old,hit,548,
1,11,20,female,native,psychology,1,3,11,74,75,new,new,cr,2771,
1,11,20,female,native,psychology,1,3,11,75,75,old,old,hit,758,
1,11,20,female,native,psychology,1,3,11,76,75,new,new,cr,1428,
1,11,20,female,native,psychology,1,3,11,77,75,old,old,hit,822,
1,11,20,female,native,psychology,1,3,11,78,75,old,old,hit,681,
1,11,20,female,native,psychology,1,3,11,79,75,old,old,hit,683,
1,11,20,female,native,psychology,1,3,11,80,75,new,new,cr,2532,
1,11,20,female,native,psychology,1,3,11,81,75,old,old,hit,697,
1,11,20,female,native,psychology,1,3,11,82,75,old,old,hit,602,
1,11,20,female,native,psychology,1,3,11,83,75,old,old,hit,1079,
1,11,20,female,native,psychology,1,3,11,84,75,old,old,hit,711,
1,11,20,female,native,psychology,1,3,11,85,75,old,old,hit,552,
1,11,20,female,native,psychology,1,3,11,86,75,new,old,fa,1183,
1,11,20,female,native,psychology,1,3,11,87,75,old,old,hit,1115,
1,11,20,female,native,psychology,1,3,11,88,75,new,new,cr,1347,
1,11,20,female,native,psychology,1,3,11,89,75,new,new,cr,1448,
1,11,20,female,native,psychology,1,3,11,90,75,old,old,hit,722,
1,11,20,female,native,psychology,1,3,11,91,75,old,old,hit,1096,
1,11,20,female,native,psychology,1,3,11,92,75,old,old,hit,905,
1,11,20,female,native,psychology,1,3,11,93,75,new,new,cr,856,
1,11,20,female,native,psychology,1,3,11,94,75,old,old,hit,754,
1,11,20,female,native,psychology,1,3,11,95,75,old,old,hit,768,
1,11,20,female,native,psychology,1,3,11,96,75,old,old,hit,886,
1,11,20,female,native,psychology,1,3,11,97,75,old,old,hit,760,
1,11,20,female,native,psychology,1,3,11,98,75,old,new,miss,3398,
1,11,20,female,native,psychology,1,3,11,99,75,old,old,hit,574,
1,11,20,female,native,psychology,1,3,11,100,75,new,new,cr,844,
1,11,20,female,native,psychology,1,4,12,1,75,old,old,hit,1369,
1,11,20,female,native,psychology,1,4,12,2,75,old,old,hit,1047,
1,11,20,female,native,psychology,1,4,12,3,75,new,old,fa,1057,
1,11,20,female,native,psychology,1,4,12,4,75,old,old,hit,834,
1,11,20,female,native,psychology,1,4,12,5,75,old,old,hit,717,
1,11,20,female,native,psychology,1,4,12,6,75,old,old,hit,629,
1,11,20,female,native,psychology,1,4,12,7,75,new,new,cr,720,
1,11,20,female,native,psychology,1,4,12,8,75,old,old,hit,1032,
1,11,20,female,native,psychology,1,4,12,9,75,old,old,hit,659,
1,11,20,female,native,psychology,1,4,12,10,75,old,new,miss,4397,
1,11,20,female,native,psychology,1,4,12,11,75,new,new,cr,844,
1,11,20,female,native,psychology,1,4,12,12,75,old,old,hit,1286,
1,11,20,female,native,psychology,1,4,12,13,75,old,old,hit,711,
1,11,20,female,native,psychology,1,4,12,14,75,old,old,hit,775,
1,11,20,female,native,psychology,1,4,12,15,75,old,old,hit,1564,
1,11,20,female,native,psychology,1,4,12,16,75,new,new,cr,7329,
1,11,20,female,native,psychology,1,4,12,17,75,old,old,hit,719,
1,11,20,female,native,psychology,1,4,12,18,75,old,old,hit,663,
1,11,20,female,native,psychology,1,4,12,19,75,new,new,cr,857,
1,11,20,female,native,psychology,1,4,12,20,75,old,old,hit,619,
1,11,20,female,native,psychology,1,4,12,21,75,new,new,cr,1735,
1,11,20,female,native,psychology,1,4,12,22,75,new,new,cr,1213,
1,11,20,female,native,psychology,1,4,12,23,75,old,old,hit,775,
1,11,20,female,native,psychology,1,4,12,24,75,old,old,hit,1108,
1,11,20,female,native,psychology,1,4,12,25,75,old,old,hit,580,
1,11,20,female,native,psychology,1,4,12,26,75,old,old,hit,1426,
1,11,20,female,native,psychology,1,4,12,27,75,old,old,hit,748,
1,11,20,female,native,psychology,1,4,12,28,75,old,new,miss,891,
1,11,20,female,native,psychology,1,4,12,29,75,old,old,hit,707,
1,11,20,female,native,psychology,1,4,12,30,75,old,old,hit,595,
1,11,20,female,native,psychology,1,4,12,31,75,old,old,hit,776,
1,11,20,female,native,psychology,1,4,12,32,75,old,old,hit,2005,
1,11,20,female,native,psychology,1,4,12,33,75,old,old,hit,672,
1,11,20,female,native,psychology,1,4,12,34,75,new,old,fa,3042,
1,11,20,female,native,psychology,1,4,12,35,75,new,new,cr,1369,
1,11,20,female,native,psychology,1,4,12,36,75,old,old,hit,694,
1,11,20,female,native,psychology,1,4,12,37,75,old,old,hit,775,
1,11,20,female,native,psychology,1,4,12,38,75,old,old,hit,668,
1,11,20,female,native,psychology,1,4,12,39,75,old,new,miss,1190,
1,11,20,female,native,psychology,1,4,12,40,75,new,new,cr,1434,
1,11,20,female,native,psychology,1,4,12,41,75,old,old,hit,676,
1,11,20,female,native,psychology,1,4,12,42,75,old,old,hit,2310,
1,11,20,female,native,psychology,1,4,12,43,75,new,new,cr,1434,
1,11,20,female,native,psychology,1,4,12,44,75,old,new,miss,3709,
1,11,20,female,native,psychology,1,4,12,45,75,old,old,hit,560,
1,11,20,female,native,psychology,1,4,12,46,75,old,old,hit,614,
1,11,20,female,native,psychology,1,4,12,47,75,old,old,hit,1971,
1,11,20,female,native,psychology,1,4,12,48,75,old,old,hit,591,
1,11,20,female,native,psychology,1,4,12,49,75,new,new,cr,1028,
1,11,20,female,native,psychology,1,4,12,50,75,old,old,hit,719,
1,11,20,female,native,psychology,1,4,12,51,75,old,old,hit,991,
1,11,20,female,native,psychology,1,4,12,52,75,new,new,cr,923,
1,11,20,female,native,psychology,1,4,12,53,75,old,old,hit,978,
1,11,20,female,native,psychology,1,4,12,54,75,old,old,hit,719,
1,11,20,female,native,psychology,1,4,12,55,75,old,old,hit,1375,
1,11,20,female,native,psychology,1,4,12,56,75,new,new,cr,948,
1,11,20,female,native,psychology,1,4,12,57,75,old,old,hit,714,
1,11,20,female,native,psychology,1,4,12,58,75,new,new,cr,2458,
1,11,20,female,native,psychology,1,4,12,59,75,old,new,miss,1050,
1,11,20,female,native,psychology,1,4,12,60,75,old,old,hit,828,
1,11,20,female,native,psychology,1,4,12,61,75,old,old,hit,847,
1,11,20,female,native,psychology,1,4,12,62,75,new,new,cr,834,
1,11,20,female,native,psychology,1,4,12,63,75,new,new,cr,3108,
1,11,20,female,native,psychology,1,4,12,64,75,old,old,hit,792,
1,11,20,female,native,psychology,1,4,12,65,75,old,old,hit,653,
1,11,20,female,native,psychology,1,4,12,66,75,old,old,hit,1040,
1,11,20,female,native,psychology,1,4,12,67,75,old,old,hit,4802,
1,11,20,female,native,psychology,1,4,12,68,75,new,new,cr,752,
1,11,20,female,native,psychology,1,4,12,69,75,old,old,hit,783,
1,11,20,female,native,psychology,1,4,12,70,75,old,old,hit,796,
1,11,20,female,native,psychology,1,4,12,71,75,old,old,hit,657,
1,11,20,female,native,psychology,1,4,12,72,75,old,old,hit,707,
1,11,20,female,native,psychology,1,4,12,73,75,old,new,miss,947,
1,11,20,female,native,psychology,1,4,12,74,75,new,new,cr,2626,
1,11,20,female,native,psychology,1,4,12,75,75,new,old,fa,1258,
1,11,20,female,native,psychology,1,4,12,76,75,old,old,hit,571,
1,11,20,female,native,psychology,1,4,12,77,75,old,old,hit,1225,
1,11,20,female,native,psychology,1,4,12,78,75,old,new,miss,979,
1,11,20,female,native,psychology,1,4,12,79,75,old,old,hit,584,
1,11,20,female,native,psychology,1,4,12,80,75,old,old,hit,630,
1,11,20,female,native,psychology,1,4,12,81,75,old,old,hit,5497,
1,11,20,female,native,psychology,1,4,12,82,75,old,old,hit,890,
1,11,20,female,native,psychology,1,4,12,83,75,old,old,hit,626,
1,11,20,female,native,psychology,1,4,12,84,75,old,old,hit,646,
1,11,20,female,native,psychology,1,4,12,85,75,new,new,cr,865,
1,11,20,female,native,psychology,1,4,12,86,75,old,old,hit,787,
1,11,20,female,native,psychology,1,4,12,87,75,old,new,miss,2032,
1,11,20,female,native,psychology,1,4,12,88,75,old,old,hit,769,
1,11,20,female,native,psychology,1,4,12,89,75,old,old,hit,711,
1,11,20,female,native,psychology,1,4,12,90,75,old,old,hit,2831,
1,11,20,female,native,psychology,1,4,12,91,75,old,old,hit,624,
1,11,20,female,native,psychology,1,4,12,92,75,new,new,cr,803,
1,11,20,female,native,psychology,1,4,12,93,75,new,old,fa,1392,
1,11,20,female,native,psychology,1,4,12,94,75,old,old,hit,651,
1,11,20,female,native,psychology,1,4,12,95,75,new,new,cr,1942,
1,11,20,female,native,psychology,1,4,12,96,75,old,old,hit,635,
1,11,20,female,native,psychology,1,4,12,97,75,old,old,hit,567,
1,11,20,female,native,psychology,1,4,12,98,75,old,old,hit,637,
1,11,20,female,native,psychology,1,4,12,99,75,new,new,cr,1553,
1,11,20,female,native,psychology,1,4,12,100,75,old,old,hit,893,
1,11,20,female,native,psychology,1,4,13,1,85,old,old,hit,861,
1,11,20,female,native,psychology,1,4,13,2,85,old,old,hit,839,
1,11,20,female,native,psychology,1,4,13,3,85,new,new,cr,722,
1,11,20,female,native,psychology,1,4,13,4,85,old,old,hit,865,
1,11,20,female,native,psychology,1,4,13,5,85,old,old,hit,819,
1,11,20,female,native,psychology,1,4,13,6,85,old,old,hit,1702,
1,11,20,female,native,psychology,1,4,13,7,85,old,old,hit,677,
1,11,20,female,native,psychology,1,4,13,8,85,old,old,hit,735,
1,11,20,female,native,psychology,1,4,13,9,85,new,old,fa,2366,
1,11,20,female,native,psychology,1,4,13,10,85,old,old,hit,1946,
1,11,20,female,native,psychology,1,4,13,11,85,new,new,cr,1486,
1,11,20,female,native,psychology,1,4,13,12,85,old,old,hit,1031,
1,11,20,female,native,psychology,1,4,13,13,85,old,old,hit,802,
1,11,20,female,native,psychology,1,4,13,14,85,old,old,hit,590,
1,11,20,female,native,psychology,1,4,13,15,85,old,old,hit,4867,
1,11,20,female,native,psychology,1,4,13,16,85,old,old,hit,655,
1,11,20,female,native,psychology,1,4,13,17,85,old,old,hit,601,
1,11,20,female,native,psychology,1,4,13,18,85,old,old,hit,726,
1,11,20,female,native,psychology,1,4,13,19,85,old,old,hit,589,
1,11,20,female,native,psychology,1,4,13,20,85,old,old,hit,706,
1,11,20,female,native,psychology,1,4,13,21,85,old,old,hit,650,
1,11,20,female,native,psychology,1,4,13,22,85,old,old,hit,1229,
1,11,20,female,native,psychology,1,4,13,23,85,old,old,hit,688,
1,11,20,female,native,psychology,1,4,13,24,85,old,old,hit,521,
1,11,20,female,native,psychology,1,4,13,25,85,old,old,hit,1407,
1,11,20,female,native,psychology,1,4,13,26,85,old,old,hit,1482,
1,11,20,female,native,psychology,1,4,13,27,85,old,old,hit,2563,
1,11,20,female,native,psychology,1,4,13,28,85,new,new,cr,2350,
1,11,20,female,native,psychology,1,4,13,29,85,old,old,hit,1394,
1,11,20,female,native,psychology,1,4,13,30,85,old,old,hit,926,
1,11,20,female,native,psychology,1,4,13,31,85,old,old,hit,573,
1,11,20,female,native,psychology,1,4,13,32,85,old,old,hit,786,
1,11,20,female,native,psychology,1,4,13,33,85,old,old,hit,992,
1,11,20,female,native,psychology,1,4,13,34,85,old,old,hit,628,
1,11,20,female,native,psychology,1,4,13,35,85,old,old,hit,864,
1,11,20,female,native,psychology,1,4,13,36,85,old,old,hit,833,
1,11,20,female,native,psychology,1,4,13,37,85,old,old,hit,685,
1,11,20,female,native,psychology,1,4,13,38,85,new,new,cr,974,
1,11,20,female,native,psychology,1,4,13,39,85,old,old,hit,747,
1,11,20,female,native,psychology,1,4,13,40,85,new,new,cr,1066,
1,11,20,female,native,psychology,1,4,13,41,85,old,old,hit,955,
1,11,20,female,native,psychology,1,4,13,42,85,old,old,hit,1001,
1,11,20,female,native,psychology,1,4,13,43,85,old,old,hit,654,
1,11,20,female,native,psychology,1,4,13,44,85,old,old,hit,575,
1,11,20,female,native,psychology,1,4,13,45,85,old,old,hit,1301,
1,11,20,female,native,psychology,1,4,13,46,85,old,old,hit,741,
1,11,20,female,native,psychology,1,4,13,47,85,new,new,cr,916,
1,11,20,female,native,psychology,1,4,13,48,85,old,new,miss,1931,
1,11,20,female,native,psychology,1,4,13,49,85,old,old,hit,1921,
1,11,20,female,native,psychology,1,4,13,50,85,new,old,fa,2471,
1,11,20,female,native,psychology,1,4,13,51,85,old,old,hit,862,
1,11,20,female,native,psychology,1,4,13,52,85,new,new,cr,3056,
1,11,20,female,native,psychology,1,4,13,53,85,old,old,hit,1199,
1,11,20,female,native,psychology,1,4,13,54,85,old,old,hit,811,
1,11,20,female,native,psychology,1,4,13,55,85,old,old,hit,639,
1,11,20,female,native,psychology,1,4,13,56,85,old,old,hit,890,
1,11,20,female,native,psychology,1,4,13,57,85,old,old,hit,851,
1,11,20,female,native,psychology,1,4,13,58,85,old,old,hit,573,
1,11,20,female,native,psychology,1,4,13,59,85,old,old,hit,691,
1,11,20,female,native,psychology,1,4,13,60,85,old,old,hit,724,
1,11,20,female,native,psychology,1,4,13,61,85,new,old,fa,1475,
1,11,20,female,native,psychology,1,4,13,62,85,old,old,hit,659,
1,11,20,female,native,psychology,1,4,13,63,85,old,old,hit,2652,
1,11,20,female,native,psychology,1,4,13,64,85,old,new,miss,1188,
1,11,20,female,native,psychology,1,4,13,65,85,old,old,hit,632,
1,11,20,female,native,psychology,1,4,13,66,85,old,old,hit,1212,
1,11,20,female,native,psychology,1,4,13,67,85,new,new,cr,959,
1,11,20,female,native,psychology,1,4,13,68,85,new,new,cr,1901,
1,11,20,female,native,psychology,1,4,13,69,85,old,old,hit,1268,
1,11,20,female,native,psychology,1,4,13,70,85,old,old,hit,1389,
1,11,20,female,native,psychology,1,4,13,71,85,old,old,hit,833,
1,11,20,female,native,psychology,1,4,13,72,85,old,old,hit,612,
1,11,20,female,native,psychology,1,4,13,73,85,old,old,hit,640,
1,11,20,female,native,psychology,1,4,13,74,85,old,old,hit,867,
1,11,20,female,native,psychology,1,4,13,75,85,old,old,hit,1021,
1,11,20,female,native,psychology,1,4,13,76,85,old,old,hit,672,
1,11,20,female,native,psychology,1,4,13,77,85,old,old,hit,762,
1,11,20,female,native,psychology,1,4,13,78,85,old,old,hit,608,
1,11,20,female,native,psychology,1,4,13,79,85,old,old,hit,1100,
1,11,20,female,native,psychology,1,4,13,80,85,old,old,hit,684,
1,11,20,female,native,psychology,1,4,13,81,85,old,old,hit,750,
1,11,20,female,native,psychology,1,4,13,82,85,old,old,hit,749,
1,11,20,female,native,psychology,1,4,13,83,85,old,old,hit,715,
1,11,20,female,native,psychology,1,4,13,84,85,old,old,hit,771,
1,11,20,female,native,psychology,1,4,13,85,85,old,old,hit,672,
1,11,20,female,native,psychology,1,4,13,86,85,old,old,hit,721,
1,11,20,female,native,psychology,1,4,13,87,85,new,new,cr,2793,
1,11,20,female,native,psychology,1,4,13,88,85,old,new,miss,858,
1,11,20,female,native,psychology,1,4,13,89,85,old,old,hit,1068,
1,11,20,female,native,psychology,1,4,13,90,85,old,old,hit,1118,
1,11,20,female,native,psychology,1,4,13,91,85,new,new,cr,2949,
1,11,20,female,native,psychology,1,4,13,92,85,old,old,hit,768,
1,11,20,female,native,psychology,1,4,13,93,85,old,old,hit,726,
1,11,20,female,native,psychology,1,4,13,94,85,old,old,hit,2446,
1,11,20,female,native,psychology,1,4,13,95,85,old,old,hit,774,
1,11,20,female,native,psychology,1,4,13,96,85,old,old,hit,587,
1,11,20,female,native,psychology,1,4,13,97,85,new,new,cr,1520,
1,11,20,female,native,psychology,1,4,13,98,85,old,old,hit,967,
1,11,20,female,native,psychology,1,4,13,99,85,old,old,hit,669,
1,11,20,female,native,psychology,1,4,13,100,85,old,old,hit,679,
1,11,20,female,native,psychology,1,4,14,1,25,new,new,cr,1039,
1,11,20,female,native,psychology,1,4,14,2,25,new,new,cr,849,
1,11,20,female,native,psychology,1,4,14,3,25,new,new,cr,779,
1,11,20,female,native,psychology,1,4,14,4,25,old,old,hit,705,
1,11,20,female,native,psychology,1,4,14,5,25,new,new,cr,1409,
1,11,20,female,native,psychology,1,4,14,6,25,new,new,cr,708,
1,11,20,female,native,psychology,1,4,14,7,25,new,new,cr,1004,
1,11,20,female,native,psychology,1,4,14,8,25,old,old,hit,664,
1,11,20,female,native,psychology,1,4,14,9,25,new,new,cr,859,
1,11,20,female,native,psychology,1,4,14,10,25,new,new,cr,1251,
1,11,20,female,native,psychology,1,4,14,11,25,old,new,miss,845,
1,11,20,female,native,psychology,1,4,14,12,25,new,new,cr,872,
1,11,20,female,native,psychology,1,4,14,13,25,new,new,cr,793,
1,11,20,female,native,psychology,1,4,14,14,25,old,old,hit,1166,
1,11,20,female,native,psychology,1,4,14,15,25,new,new,cr,643,
1,11,20,female,native,psychology,1,4,14,16,25,new,new,cr,1406,
1,11,20,female,native,psychology,1,4,14,17,25,new,new,cr,705,
1,11,20,female,native,psychology,1,4,14,18,25,old,old,hit,721,
1,11,20,female,native,psychology,1,4,14,19,25,new,new,cr,952,
1,11,20,female,native,psychology,1,4,14,20,25,new,new,cr,615,
1,11,20,female,native,psychology,1,4,14,21,25,new,new,cr,1955,
1,11,20,female,native,psychology,1,4,14,22,25,new,new,cr,648,
1,11,20,female,native,psychology,1,4,14,23,25,new,old,fa,2803,
1,11,20,female,native,psychology,1,4,14,24,25,new,new,cr,1340,
1,11,20,female,native,psychology,1,4,14,25,25,new,new,cr,706,
1,11,20,female,native,psychology,1,4,14,26,25,new,new,cr,810,
1,11,20,female,native,psychology,1,4,14,27,25,new,new,cr,846,
1,11,20,female,native,psychology,1,4,14,28,25,new,new,cr,689,
1,11,20,female,native,psychology,1,4,14,29,25,new,new,cr,1216,
1,11,20,female,native,psychology,1,4,14,30,25,old,old,hit,676,
1,11,20,female,native,psychology,1,4,14,31,25,old,new,miss,2413,
1,11,20,female,native,psychology,1,4,14,32,25,old,old,hit,903,
1,11,20,female,native,psychology,1,4,14,33,25,new,new,cr,599,
1,11,20,female,native,psychology,1,4,14,34,25,new,new,cr,668,
1,11,20,female,native,psychology,1,4,14,35,25,old,new,miss,814,
1,11,20,female,native,psychology,1,4,14,36,25,new,new,cr,970,
1,11,20,female,native,psychology,1,4,14,37,25,new,new,cr,688,
1,11,20,female,native,psychology,1,4,14,38,25,new,new,cr,841,
1,11,20,female,native,psychology,1,4,14,39,25,new,new,cr,707,
1,11,20,female,native,psychology,1,4,14,40,25,old,old,hit,1475,
1,11,20,female,native,psychology,1,4,14,41,25,new,new,cr,756,
1,11,20,female,native,psychology,1,4,14,42,25,new,new,cr,1066,
1,11,20,female,native,psychology,1,4,14,43,25,new,new,cr,763,
1,11,20,female,native,psychology,1,4,14,44,25,old,old,hit,1001,
1,11,20,female,native,psychology,1,4,14,45,25,old,new,miss,2302,
1,11,20,female,native,psychology,1,4,14,46,25,new,new,cr,892,
1,11,20,female,native,psychology,1,4,14,47,25,new,new,cr,876,
1,11,20,female,native,psychology,1,4,14,48,25,new,new,cr,621,
1,11,20,female,native,psychology,1,4,14,49,25,old,old,hit,761,
1,11,20,female,native,psychology,1,4,14,50,25,new,new,cr,1471,
1,11,20,female,native,psychology,1,4,14,51,25,new,new,cr,839,
1,11,20,female,native,psychology,1,4,14,52,25,new,new,cr,1386,
1,11,20,female,native,psychology,1,4,14,53,25,new,new,cr,2070,
1,11,20,female,native,psychology,1,4,14,54,25,new,new,cr,1006,
1,11,20,female,native,psychology,1,4,14,55,25,new,new,cr,1218,
1,11,20,female,native,psychology,1,4,14,56,25,old,old,hit,797,
1,11,20,female,native,psychology,1,4,14,57,25,new,new,cr,2745,
1,11,20,female,native,psychology,1,4,14,58,25,old,old,hit,1149,
1,11,20,female,native,psychology,1,4,14,59,25,new,new,cr,2763,
1,11,20,female,native,psychology,1,4,14,60,25,new,new,cr,1150,
1,11,20,female,native,psychology,1,4,14,61,25,new,new,cr,780,
1,11,20,female,native,psychology,1,4,14,62,25,new,new,cr,801,
1,11,20,female,native,psychology,1,4,14,63,25,new,new,cr,646,
1,11,20,female,native,psychology,1,4,14,64,25,old,new,miss,3913,
1,11,20,female,native,psychology,1,4,14,65,25,old,old,hit,1068,
1,11,20,female,native,psychology,1,4,14,66,25,new,new,cr,1349,
1,11,20,female,native,psychology,1,4,14,67,25,old,old,hit,859,
1,11,20,female,native,psychology,1,4,14,68,25,new,new,cr,1204,
1,11,20,female,native,psychology,1,4,14,69,25,new,new,cr,2391,
1,11,20,female,native,psychology,1,4,14,70,25,new,new,cr,697,
1,11,20,female,native,psychology,1,4,14,71,25,new,new,cr,914,
1,11,20,female,native,psychology,1,4,14,72,25,new,new,cr,1882,
1,11,20,female,native,psychology,1,4,14,73,25,new,new,cr,1082,
1,11,20,female,native,psychology,1,4,14,74,25,new,new,cr,746,
1,11,20,female,native,psychology,1,4,14,75,25,new,new,cr,705,
1,11,20,female,native,psychology,1,4,14,76,25,old,old,hit,697,
1,11,20,female,native,psychology,1,4,14,77,25,new,new,cr,1874,
1,11,20,female,native,psychology,1,4,14,78,25,old,old,hit,4210,
1,11,20,female,native,psychology,1,4,14,79,25,new,new,cr,1832,
1,11,20,female,native,psychology,1,4,14,80,25,new,new,cr,1562,
1,11,20,female,native,psychology,1,4,14,81,25,new,new,cr,1519,
1,11,20,female,native,psychology,1,4,14,82,25,new,new,cr,877,
1,11,20,female,native,psychology,1,4,14,83,25,new,new,cr,1711,
1,11,20,female,native,psychology,1,4,14,84,25,new,new,cr,605,
1,11,20,female,native,psychology,1,4,14,85,25,new,new,cr,601,
1,11,20,female,native,psychology,1,4,14,86,25,new,new,cr,1301,
1,11,20,female,native,psychology,1,4,14,87,25,new,new,cr,645,
1,11,20,female,native,psychology,1,4,14,88,25,new,new,cr,1856,
1,11,20,female,native,psychology,1,4,14,89,25,new,new,cr,704,
1,11,20,female,native,psychology,1,4,14,90,25,new,new,cr,856,
1,11,20,female,native,psychology,1,4,14,91,25,old,old,hit,1666,
1,11,20,female,native,psychology,1,4,14,92,25,old,old,hit,611,
1,11,20,female,native,psychology,1,4,14,93,25,new,new,cr,1711,
1,11,20,female,native,psychology,1,4,14,94,25,new,new,cr,934,
1,11,20,female,native,psychology,1,4,14,95,25,new,new,cr,1261,
1,11,20,female,native,psychology,1,4,14,96,25,old,old,hit,1118,
1,11,20,female,native,psychology,1,4,14,97,25,old,old,hit,701,
1,11,20,female,native,psychology,1,4,14,98,25,new,new,cr,1214,
1,11,20,female,native,psychology,1,4,14,99,25,old,old,hit,818,
1,11,20,female,native,psychology,1,4,14,100,25,new,new,cr,974,
1,11,20,female,native,psychology,1,4,15,1,15,new,new,cr,1647,
1,11,20,female,native,psychology,1,4,15,2,15,new,new,cr,1505,
1,11,20,female,native,psychology,1,4,15,3,15,new,new,cr,760,
1,11,20,female,native,psychology,1,4,15,4,15,new,new,cr,790,
1,11,20,female,native,psychology,1,4,15,5,15,new,new,cr,643,
1,11,20,female,native,psychology,1,4,15,6,15,new,new,cr,1998,
1,11,20,female,native,psychology,1,4,15,7,15,new,new,cr,712,
1,11,20,female,native,psychology,1,4,15,8,15,new,new,cr,928,
1,11,20,female,native,psychology,1,4,15,9,15,new,new,cr,887,
1,11,20,female,native,psychology,1,4,15,10,15,new,new,cr,824,
1,11,20,female,native,psychology,1,4,15,11,15,new,new,cr,691,
1,11,20,female,native,psychology,1,4,15,12,15,new,new,cr,1236,
1,11,20,female,native,psychology,1,4,15,13,15,old,old,hit,686,
1,11,20,female,native,psychology,1,4,15,14,15,new,new,cr,752,
1,11,20,female,native,psychology,1,4,15,15,15,new,new,cr,807,
1,11,20,female,native,psychology,1,4,15,16,15,new,new,cr,763,
1,11,20,female,native,psychology,1,4,15,17,15,old,old,hit,745,
1,11,20,female,native,psychology,1,4,15,18,15,old,old,hit,711,
1,11,20,female,native,psychology,1,4,15,19,15,new,new,cr,839,
1,11,20,female,native,psychology,1,4,15,20,15,new,new,cr,938,
1,11,20,female,native,psychology,1,4,15,21,15,new,new,cr,1216,
1,11,20,female,native,psychology,1,4,15,22,15,old,old,hit,884,
1,11,20,female,native,psychology,1,4,15,23,15,old,old,hit,1317,
1,11,20,female,native,psychology,1,4,15,24,15,new,new,cr,1052,
1,11,20,female,native,psychology,1,4,15,25,15,new,new,cr,766,
1,11,20,female,native,psychology,1,4,15,26,15,new,new,cr,2092,
1,11,20,female,native,psychology,1,4,15,27,15,new,new,cr,875,
1,11,20,female,native,psychology,1,4,15,28,15,new,new,cr,796,
1,11,20,female,native,psychology,1,4,15,29,15,new,new,cr,1561,
1,11,20,female,native,psychology,1,4,15,30,15,new,new,cr,3268,
1,11,20,female,native,psychology,1,4,15,31,15,new,new,cr,746,
1,11,20,female,native,psychology,1,4,15,32,15,new,new,cr,1841,
1,11,20,female,native,psychology,1,4,15,33,15,new,new,cr,858,
1,11,20,female,native,psychology,1,4,15,34,15,new,new,cr,996,
1,11,20,female,native,psychology,1,4,15,35,15,new,new,cr,1776,
1,11,20,female,native,psychology,1,4,15,36,15,new,new,cr,684,
1,11,20,female,native,psychology,1,4,15,37,15,new,new,cr,926,
1,11,20,female,native,psychology,1,4,15,38,15,old,new,miss,725,
1,11,20,female,native,psychology,1,4,15,39,15,new,new,cr,764,
1,11,20,female,native,psychology,1,4,15,40,15,new,new,cr,850,
1,11,20,female,native,psychology,1,4,15,41,15,new,new,cr,1997,
1,11,20,female,native,psychology,1,4,15,42,15,new,new,cr,3063,
1,11,20,female,native,psychology,1,4,15,43,15,new,new,cr,2430,
1,11,20,female,native,psychology,1,4,15,44,15,new,new,cr,670,
1,11,20,female,native,psychology,1,4,15,45,15,new,new,cr,1585,
1,11,20,female,native,psychology,1,4,15,46,15,old,old,hit,701,
1,11,20,female,native,psychology,1,4,15,47,15,old,old,hit,702,
1,11,20,female,native,psychology,1,4,15,48,15,new,new,cr,766,
1,11,20,female,native,psychology,1,4,15,49,15,new,new,cr,1939,
1,11,20,female,native,psychology,1,4,15,50,15,new,new,cr,1784,
1,11,20,female,native,psychology,1,4,15,51,15,new,new,cr,1084,
1,11,20,female,native,psychology,1,4,15,52,15,old,old,hit,861,
1,11,20,female,native,psychology,1,4,15,53,15,new,new,cr,855,
1,11,20,female,native,psychology,1,4,15,54,15,new,new,cr,1512,
1,11,20,female,native,psychology,1,4,15,55,15,new,new,cr,959,
1,11,20,female,native,psychology,1,4,15,56,15,new,new,cr,997,
1,11,20,female,native,psychology,1,4,15,57,15,new,new,cr,889,
1,11,20,female,native,psychology,1,4,15,58,15,new,new,cr,754,
1,11,20,female,native,psychology,1,4,15,59,15,new,new,cr,1801,
1,11,20,female,native,psychology,1,4,15,60,15,new,new,cr,940,
1,11,20,female,native,psychology,1,4,15,61,15,old,old,hit,1018,
1,11,20,female,native,psychology,1,4,15,62,15,new,new,cr,1966,
1,11,20,female,native,psychology,1,4,15,63,15,new,new,cr,2474,
1,11,20,female,native,psychology,1,4,15,64,15,new,new,cr,1016,
1,11,20,female,native,psychology,1,4,15,65,15,new,new,cr,852,
1,11,20,female,native,psychology,1,4,15,66,15,new,new,cr,967,
1,11,20,female,native,psychology,1,4,15,67,15,new,new,cr,779,
1,11,20,female,native,psychology,1,4,15,68,15,new,new,cr,761,
1,11,20,female,native,psychology,1,4,15,69,15,new,new,cr,1687,
1,11,20,female,native,psychology,1,4,15,70,15,new,new,cr,735,
1,11,20,female,native,psychology,1,4,15,71,15,old,old,hit,830,
1,11,20,female,native,psychology,1,4,15,72,15,new,new,cr,1329,
1,11,20,female,native,psychology,1,4,15,73,15,new,new,cr,696,
1,11,20,female,native,psychology,1,4,15,74,15,new,new,cr,728,
1,11,20,female,native,psychology,1,4,15,75,15,old,old,hit,1168,
1,11,20,female,native,psychology,1,4,15,76,15,new,new,cr,1557,
1,11,20,female,native,psychology,1,4,15,77,15,new,new,cr,882,
1,11,20,female,native,psychology,1,4,15,78,15,new,new,cr,755,
1,11,20,female,native,psychology,1,4,15,79,15,new,new,cr,1033,
1,11,20,female,native,psychology,1,4,15,80,15,new,new,cr,660,
1,11,20,female,native,psychology,1,4,15,81,15,new,new,cr,1478,
1,11,20,female,native,psychology,1,4,15,82,15,new,new,cr,1399,
1,11,20,female,native,psychology,1,4,15,83,15,new,new,cr,826,
1,11,20,female,native,psychology,1,4,15,84,15,old,old,hit,797,
1,11,20,female,native,psychology,1,4,15,85,15,new,new,cr,914,
1,11,20,female,native,psychology,1,4,15,86,15,new,new,cr,1314,
1,11,20,female,native,psychology,1,4,15,87,15,new,new,cr,849,
1,11,20,female,native,psychology,1,4,15,88,15,new,new,cr,1379,
1,11,20,female,native,psychology,1,4,15,89,15,new,new,cr,1023,
1,11,20,female,native,psychology,1,4,15,90,15,old,old,hit,2274,
1,11,20,female,native,psychology,1,4,15,91,15,new,new,cr,1161,
1,11,20,female,native,psychology,1,4,15,92,15,new,new,cr,1134,
1,11,20,female,native,psychology,1,4,15,93,15,new,new,cr,917,
1,11,20,female,native,psychology,1,4,15,94,15,old,old,hit,1093,
1,11,20,female,native,psychology,1,4,15,95,15,new,new,cr,1797,
1,11,20,female,native,psychology,1,4,15,96,15,new,new,cr,1536,
1,11,20,female,native,psychology,1,4,15,97,15,new,new,cr,1078,
1,11,20,female,native,psychology,1,4,15,98,15,new,new,cr,2119,
1,11,20,female,native,psychology,1,4,15,99,15,new,new,cr,1037,
1,11,20,female,native,psychology,1,4,15,100,15,new,new,cr,1576,
1,11,20,female,native,psychology,1,5,16,1,15,new,new,cr,1224,
1,11,20,female,native,psychology,1,5,16,2,15,new,new,cr,675,
1,11,20,female,native,psychology,1,5,16,3,15,new,new,cr,692,
1,11,20,female,native,psychology,1,5,16,4,15,old,old,hit,709,
1,11,20,female,native,psychology,1,5,16,5,15,old,old,hit,733,
1,11,20,female,native,psychology,1,5,16,6,15,new,new,cr,772,
1,11,20,female,native,psychology,1,5,16,7,15,new,new,cr,585,
1,11,20,female,native,psychology,1,5,16,8,15,new,new,cr,623,
1,11,20,female,native,psychology,1,5,16,9,15,new,new,cr,946,
1,11,20,female,native,psychology,1,5,16,10,15,new,new,cr,609,
1,11,20,female,native,psychology,1,5,16,11,15,new,new,cr,981,
1,11,20,female,native,psychology,1,5,16,12,15,new,new,cr,690,
1,11,20,female,native,psychology,1,5,16,13,15,new,new,cr,627,
1,11,20,female,native,psychology,1,5,16,14,15,old,old,hit,670,
1,11,20,female,native,psychology,1,5,16,15,15,new,new,cr,905,
1,11,20,female,native,psychology,1,5,16,16,15,new,new,cr,1112,
1,11,20,female,native,psychology,1,5,16,17,15,new,new,cr,1152,
1,11,20,female,native,psychology,1,5,16,18,15,new,new,cr,758,
1,11,20,female,native,psychology,1,5,16,19,15,new,new,cr,2788,
1,11,20,female,native,psychology,1,5,16,20,15,new,new,cr,845,
1,11,20,female,native,psychology,1,5,16,21,15,old,new,miss,1104,
1,11,20,female,native,psychology,1,5,16,22,15,old,old,hit,728,
1,11,20,female,native,psychology,1,5,16,23,15,new,new,cr,935,
1,11,20,female,native,psychology,1,5,16,24,15,new,new,cr,1215,
1,11,20,female,native,psychology,1,5,16,25,15,new,new,cr,1562,
1,11,20,female,native,psychology,1,5,16,26,15,old,old,hit,879,
1,11,20,female,native,psychology,1,5,16,27,15,new,new,cr,2520,
1,11,20,female,native,psychology,1,5,16,28,15,new,new,cr,877,
1,11,20,female,native,psychology,1,5,16,29,15,new,new,cr,742,
1,11,20,female,native,psychology,1,5,16,30,15,new,new,cr,741,
1,11,20,female,native,psychology,1,5,16,31,15,new,new,cr,636,
1,11,20,female,native,psychology,1,5,16,32,15,new,new,cr,719,
1,11,20,female,native,psychology,1,5,16,33,15,new,new,cr,1120,
1,11,20,female,native,psychology,1,5,16,34,15,new,new,cr,654,
1,11,20,female,native,psychology,1,5,16,35,15,new,new,cr,1208,
1,11,20,female,native,psychology,1,5,16,36,15,new,new,cr,788,
1,11,20,female,native,psychology,1,5,16,37,15,new,new,cr,2472,
1,11,20,female,native,psychology,1,5,16,38,15,new,new,cr,856,
1,11,20,female,native,psychology,1,5,16,39,15,new,new,cr,753,
1,11,20,female,native,psychology,1,5,16,40,15,new,new,cr,1008,
1,11,20,female,native,psychology,1,5,16,41,15,new,new,cr,700,
1,11,20,female,native,psychology,1,5,16,42,15,old,old,hit,813,
1,11,20,female,native,psychology,1,5,16,43,15,new,new,cr,1265,
1,11,20,female,native,psychology,1,5,16,44,15,new,new,cr,1826,
1,11,20,female,native,psychology,1,5,16,45,15,new,new,cr,780,
1,11,20,female,native,psychology,1,5,16,46,15,new,new,cr,1289,
1,11,20,female,native,psychology,1,5,16,47,15,new,new,cr,1081,
1,11,20,female,native,psychology,1,5,16,48,15,new,new,cr,769,
1,11,20,female,native,psychology,1,5,16,49,15,new,new,cr,855,
1,11,20,female,native,psychology,1,5,16,50,15,old,old,hit,753,
1,11,20,female,native,psychology,1,5,16,51,15,new,new,cr,1079,
1,11,20,female,native,psychology,1,5,16,52,15,new,new,cr,752,
1,11,20,female,native,psychology,1,5,16,53,15,new,new,cr,903,
1,11,20,female,native,psychology,1,5,16,54,15,new,new,cr,1048,
1,11,20,female,native,psychology,1,5,16,55,15,new,new,cr,690,
1,11,20,female,native,psychology,1,5,16,56,15,new,new,cr,907,
1,11,20,female,native,psychology,1,5,16,57,15,new,new,cr,802,
1,11,20,female,native,psychology,1,5,16,58,15,old,new,miss,1623,
1,11,20,female,native,psychology,1,5,16,59,15,new,new,cr,777,
1,11,20,female,native,psychology,1,5,16,60,15,new,new,cr,1046,
1,11,20,female,native,psychology,1,5,16,61,15,new,new,cr,929,
1,11,20,female,native,psychology,1,5,16,62,15,new,new,cr,1959,
1,11,20,female,native,psychology,1,5,16,63,15,new,new,cr,1107,
1,11,20,female,native,psychology,1,5,16,64,15,new,new,cr,930,
1,11,20,female,native,psychology,1,5,16,65,15,new,new,cr,2794,
1,11,20,female,native,psychology,1,5,16,66,15,new,new,cr,779,
1,11,20,female,native,psychology,1,5,16,67,15,old,old,hit,768,
1,11,20,female,native,psychology,1,5,16,68,15,new,new,cr,2902,
1,11,20,female,native,psychology,1,5,16,69,15,new,new,cr,676,
1,11,20,female,native,psychology,1,5,16,70,15,new,new,cr,733,
1,11,20,female,native,psychology,1,5,16,71,15,new,new,cr,829,
1,11,20,female,native,psychology,1,5,16,72,15,new,new,cr,664,
1,11,20,female,native,psychology,1,5,16,73,15,new,new,cr,5785,
1,11,20,female,native,psychology,1,5,16,74,15,new,new,cr,687,
1,11,20,female,native,psychology,1,5,16,75,15,new,new,cr,600,
1,11,20,female,native,psychology,1,5,16,76,15,old,old,hit,781,
1,11,20,female,native,psychology,1,5,16,77,15,new,new,cr,667,
1,11,20,female,native,psychology,1,5,16,78,15,old,old,hit,1861,
1,11,20,female,native,psychology,1,5,16,79,15,new,new,cr,669,
1,11,20,female,native,psychology,1,5,16,80,15,new,new,cr,719,
1,11,20,female,native,psychology,1,5,16,81,15,new,new,cr,951,
1,11,20,female,native,psychology,1,5,16,82,15,new,new,cr,766,
1,11,20,female,native,psychology,1,5,16,83,15,new,new,cr,892,
1,11,20,female,native,psychology,1,5,16,84,15,new,new,cr,884,
1,11,20,female,native,psychology,1,5,16,85,15,new,new,cr,830,
1,11,20,female,native,psychology,1,5,16,86,15,new,new,cr,872,
1,11,20,female,native,psychology,1,5,16,87,15,new,new,cr,841,
1,11,20,female,native,psychology,1,5,16,88,15,new,new,cr,1508,
1,11,20,female,native,psychology,1,5,16,89,15,new,new,cr,2714,
1,11,20,female,native,psychology,1,5,16,90,15,new,new,cr,751,
1,11,20,female,native,psychology,1,5,16,91,15,old,old,hit,3030,
1,11,20,female,native,psychology,1,5,16,92,15,new,new,cr,3222,
1,11,20,female,native,psychology,1,5,16,93,15,old,old,hit,3790,
1,11,20,female,native,psychology,1,5,16,94,15,new,new,cr,727,
1,11,20,female,native,psychology,1,5,16,95,15,old,old,hit,1094,
1,11,20,female,native,psychology,1,5,16,96,15,new,new,cr,1238,
1,11,20,female,native,psychology,1,5,16,97,15,new,new,cr,880,
1,11,20,female,native,psychology,1,5,16,98,15,new,new,cr,1033,
1,11,20,female,native,psychology,1,5,16,99,15,new,new,cr,795,
1,11,20,female,native,psychology,1,5,16,100,15,new,new,cr,1056,
1,11,20,female,native,psychology,1,5,17,1,75,new,new,cr,2022,
1,11,20,female,native,psychology,1,5,17,2,75,old,old,hit,1720,
1,11,20,female,native,psychology,1,5,17,3,75,old,old,hit,927,
