Subject,Age,Sex,Language,Major,Session,Part,Cycle,Trial,BaseRate,Stimulus,Response,Matrix,RT
1,25,female,native,other,1,1,1,1,90,new,new,cr,2021
1,25,female,native,other,1,1,1,2,90,old,old,hit,975
1,25,female,native,other,1,1,1,3,90,new,new,cr,813
1,25,female,native,other,1,1,1,4,90,old,old,hit,1745
1,25,female,native,other,1,1,1,5,90,old,old,hit,839
1,25,female,native,other,1,1,1,6,90,old,old,hit,689
1,25,female,native,other,1,1,1,7,90,old,old,hit,858
1,25,female,native,other,1,1,1,8,90,old,old,hit,676
1,25,female,native,other,1,1,1,9,90,old,old,hit,822
1,25,female,native,other,1,1,1,10,90,old,old,hit,745
1,25,female,native,other,1,1,1,11,90,new,new,cr,792
1,25,female,native,other,1,1,1,12,90,old,old,hit,957
1,25,female,native,other,1,1,1,13,90,old,old,hit,635
1,25,female,native,other,1,1,1,14,90,old,old,hit,655
1,25,female,native,other,1,1,1,15,90,old,old,hit,642
1,25,female,native,other,1,1,1,16,90,old,old,hit,733
1,25,female,native,other,1,1,1,17,90,old,old,hit,549
1,25,female,native,other,1,1,1,18,90,old,old,hit,788
1,25,female,native,other,1,1,1,19,90,old,old,hit,865
1,25,female,native,other,1,1,1,20,90,old,new,miss,1235
1,25,female,native,other,1,1,1,21,90,old,old,hit,774
1,25,female,native,other,1,1,1,22,90,old,old,hit,708
1,25,female,native,other,1,1,1,23,90,old,old,hit,635
1,25,female,native,other,1,1,1,24,90,old,old,hit,943
1,25,female,native,other,1,1,1,25,90,old,old,hit,702
1,25,female,native,other,1,1,1,26,90,old,old,hit,711
1,25,female,native,other,1,1,1,27,90,old,old,hit,664
1,25,female,native,other,1,1,1,28,90,old,old,hit,1066
1,25,female,native,other,1,1,1,29,90,old,old,hit,588
1,25,female,native,other,1,1,1,30,90,old,old,hit,609
1,25,female,native,other,1,1,1,31,90,old,old,hit,558
1,25,female,native,other,1,1,1,32,90,old,old,hit,677
1,25,female,native,other,1,1,1,33,90,old,old,hit,1255
1,25,female,native,other,1,1,1,34,90,old,old,hit,761
1,25,female,native,other,1,1,1,35,90,old,old,hit,607
1,25,female,native,other,1,1,1,36,90,old,old,hit,628
1,25,female,native,other,1,1,1,37,90,old,old,hit,752
1,25,female,native,other,1,1,1,38,90,old,old,hit,734
1,25,female,native,other,1,1,1,39,90,old,old,hit,630
1,25,female,native,other,1,1,1,40,90,old,old,hit,641
1,25,female,native,other,1,1,1,41,90,old,old,hit,669
1,25,female,native,other,1,1,1,42,90,old,old,hit,1727
1,25,female,native,other,1,1,1,43,90,old,old,hit,645
1,25,female,native,other,1,1,1,44,90,old,old,hit,521
1,25,female,native,other,1,1,1,45,90,old,old,hit,633
1,25,female,native,other,1,1,1,46,90,old,old,hit,677
1,25,female,native,other,1,1,1,47,90,old,old,hit,614
1,25,female,native,other,1,1,1,48,90,new,new,cr,859
1,25,female,native,other,1,1,1,49,90,new,new,cr,1005
1,25,female,native,other,1,1,1,50,90,new,old,fa,657
1,25,female,native,other,1,1,1,51,90,old,old,hit,780
1,25,female,native,other,1,1,1,52,90,old,old,hit,921
1,25,female,native,other,1,1,1,53,90,old,old,hit,712
1,25,female,native,other,1,1,1,54,90,old,old,hit,792
1,25,female,native,other,1,1,1,55,90,old,old,hit,629
1,25,female,native,other,1,1,1,56,90,old,old,hit,617
1,25,female,native,other,1,1,1,57,90,old,old,hit,686
1,25,female,native,other,1,1,1,58,90,old,old,hit,960
1,25,female,native,other,1,1,1,59,90,old,old,hit,598
1,25,female,native,other,1,1,1,60,90,old,old,hit,659
1,25,female,native,other,1,1,2,1,25,new,new,cr,1354
1,25,female,native,other,1,1,2,2,25,new,new,cr,720
1,25,female,native,other,1,1,2,3,25,old,old,hit,785
1,25,female,native,other,1,1,2,4,25,new,new,cr,734
1,25,female,native,other,1,1,2,5,25,old,old,hit,894
1,25,female,native,other,1,1,2,6,25,new,new,cr,774
1,25,female,native,other,1,1,2,7,25,new,new,cr,644
1,25,female,native,other,1,1,2,8,25,new,new,cr,1087
1,25,female,native,other,1,1,2,9,25,new,new,cr,680
1,25,female,native,other,1,1,2,10,25,old,old,hit,850
1,25,female,native,other,1,1,2,11,25,new,new,cr,701
1,25,female,native,other,1,1,2,12,25,new,new,cr,918
1,25,female,native,other,1,1,2,13,25,new,new,cr,782
1,25,female,native,other,1,1,2,14,25,old,old,hit,724
1,25,female,native,other,1,1,2,15,25,new,new,cr,748
1,25,female,native,other,1,1,2,16,25,new,new,cr,787
1,25,female,native,other,1,1,2,17,25,new,new,cr,672
1,25,female,native,other,1,1,2,18,25,new,new,cr,674
1,25,female,native,other,1,1,2,19,25,new,new,cr,892
1,25,female,native,other,1,1,2,20,25,new,old,fa,949
1,25,female,native,other,1,1,2,21,25,new,new,cr,716
1,25,female,native,other,1,1,2,22,25,old,old,hit,651
1,25,female,native,other,1,1,2,23,25,new,new,cr,622
1,25,female,native,other,1,1,2,24,25,old,old,hit,762
1,25,female,native,other,1,1,2,25,25,old,old,hit,793
1,25,female,native,other,1,1,2,26,25,new,new,cr,862
1,25,female,native,other,1,1,2,27,25,new,new,cr,712
1,25,female,native,other,1,1,2,28,25,new,new,cr,976
1,25,female,native,other,1,1,2,29,25,old,old,hit,630
1,25,female,native,other,1,1,2,30,25,old,old,hit,825
1,25,female,native,other,1,1,2,31,25,new,new,cr,597
1,25,female,native,other,1,1,2,32,25,new,new,cr,730
1,25,female,native,other,1,1,2,33,25,old,old,hit,810
1,25,female,native,other,1,1,2,34,25,new,new,cr,734
1,25,female,native,other,1,1,2,35,25,new,new,cr,1678
1,25,female,native,other,1,1,2,36,25,old,old,hit,590
1,25,female,native,other,1,1,2,37,25,new,new,cr,659
1,25,female,native,other,1,1,2,38,25,new,new,cr,701
1,25,female,native,other,1,1,2,39,25,new,new,cr,630
1,25,female,native,other,1,1,2,40,25,new,new,cr,730
1,25,female,native,other,1,1,2,41,25,new,new,cr,610
1,25,female,native,other,1,1,2,42,25,new,new,cr,663
1,25,female,native,other,1,1,2,43,25,new,old,fa,737
1,25,female,native,other,1,1,2,44,25,old,old,hit,680
1,25,female,native,other,1,1,2,45,25,new,old,fa,858
1,25,female,native,other,1,1,2,46,25,new,new,cr,692
1,25,female,native,other,1,1,2,47,25,new,new,cr,773
1,25,female,native,other,1,1,2,48,25,new,old,fa,1019
1,25,female,native,other,1,1,2,49,25,new,new,cr,679
1,25,female,native,other,1,1,2,50,25,new,new,cr,641
1,25,female,native,other,1,1,2,51,25,new,new,cr,668
1,25,female,native,other,1,1,2,52,25,new,new,cr,663
1,25,female,native,other,1,1,2,53,25,new,old,fa,968
1,25,female,native,other,1,1,2,54,25,new,old,fa,1126
1,25,female,native,other,1,1,2,55,25,new,new,cr,709
1,25,female,native,other,1,1,2,56,25,new,new,cr,622
1,25,female,native,other,1,1,2,57,25,old,old,hit,954
1,25,female,native,other,1,1,2,58,25,old,old,hit,929
1,25,female,native,other,1,1,2,59,25,new,new,cr,848
1,25,female,native,other,1,1,2,60,25,old,old,hit,1155
1,25,female,native,other,1,1,3,1,10,new,new,cr,1061
1,25,female,native,other,1,1,3,2,10,new,new,cr,607
1,25,female,native,other,1,1,3,3,10,new,new,cr,603
1,25,female,native,other,1,1,3,4,10,new,new,cr,657
1,25,female,native,other,1,1,3,5,10,new,new,cr,699
1,25,female,native,other,1,1,3,6,10,new,new,cr,860
1,25,female,native,other,1,1,3,7,10,new,new,cr,583
1,25,female,native,other,1,1,3,8,10,new,new,cr,565
1,25,female,native,other,1,1,3,9,10,new,new,cr,866
1,25,female,native,other,1,1,3,10,10,new,new,cr,548
1,25,female,native,other,1,1,3,11,10,new,new,cr,564
1,25,female,native,other,1,1,3,12,10,new,new,cr,651
1,25,female,native,other,1,1,3,13,10,old,old,hit,774
1,25,female,native,other,1,1,3,14,10,new,old,fa,899
1,25,female,native,other,1,1,3,15,10,new,new,cr,860
1,25,female,native,other,1,1,3,16,10,old,old,hit,670
1,25,female,native,other,1,1,3,17,10,new,new,cr,952
1,25,female,native,other,1,1,3,18,10,new,new,cr,615
1,25,female,native,other,1,1,3,19,10,new,new,cr,620
1,25,female,native,other,1,1,3,20,10,new,new,cr,624
1,25,female,native,other,1,1,3,21,10,new,new,cr,971
1,25,female,native,other,1,1,3,22,10,new,new,cr,633
1,25,female,native,other,1,1,3,23,10,new,new,cr,645
1,25,female,native,other,1,1,3,24,10,new,new,cr,640
1,25,female,native,other,1,1,3,25,10,new,new,cr,762
1,25,female,native,other,1,1,3,26,10,new,new,cr,601
1,25,female,native,other,1,1,3,27,10,new,new,cr,646
1,25,female,native,other,1,1,3,28,10,new,new,cr,857
1,25,female,native,other,1,1,3,29,10,new,new,cr,723
1,25,female,native,other,1,1,3,30,10,new,new,cr,499
1,25,female,native,other,1,1,3,31,10,old,old,hit,669
1,25,female,native,other,1,1,3,32,10,new,new,cr,703
1,25,female,native,other,1,1,3,33,10,new,new,cr,624
1,25,female,native,other,1,1,3,34,10,new,new,cr,588
1,25,female,native,other,1,1,3,35,10,new,new,cr,657
1,25,female,native,other,1,1,3,36,10,old,old,hit,1028
1,25,female,native,other,1,1,3,37,10,new,new,cr,639
1,25,female,native,other,1,1,3,38,10,new,new,cr,1282
1,25,female,native,other,1,1,3,39,10,new,new,cr,915
1,25,female,native,other,1,1,3,40,10,new,new,cr,1171
1,25,female,native,other,1,1,3,41,10,new,new,cr,624
1,25,female,native,other,1,1,3,42,10,new,new,cr,1260
1,25,female,native,other,1,1,3,43,10,new,new,cr,582
1,25,female,native,other,1,1,3,44,10,old,old,hit,868
1,25,female,native,other,1,1,3,45,10,new,new,cr,870
1,25,female,native,other,1,1,3,46,10,new,new,cr,632
1,25,female,native,other,1,1,3,47,10,new,new,cr,484
1,25,female,native,other,1,1,3,48,10,new,new,cr,798
1,25,female,native,other,1,1,3,49,10,new,new,cr,475
1,25,female,native,other,1,1,3,50,10,new,new,cr,1077
1,25,female,native,other,1,1,3,51,10,new,new,cr,983
1,25,female,native,other,1,1,3,52,10,new,new,cr,708
1,25,female,native,other,1,1,3,53,10,new,new,cr,564
1,25,female,native,other,1,1,3,54,10,new,new,cr,555
1,25,female,native,other,1,1,3,55,10,new,new,cr,610
1,25,female,native,other,1,1,3,56,10,new,new,cr,590
1,25,female,native,other,1,1,3,57,10,new,new,cr,547
1,25,female,native,other,1,1,3,58,10,old,old,hit,770
1,25,female,native,other,1,1,3,59,10,new,new,cr,1240
1,25,female,native,other,1,1,3,60,10,new,new,cr,667
1,25,female,native,other,1,1,4,1,35,old,old,hit,1211
1,25,female,native,other,1,1,4,2,35,new,new,cr,582
1,25,female,native,other,1,1,4,3,35,old,old,hit,772
1,25,female,native,other,1,1,4,4,35,new,new,cr,714
1,25,female,native,other,1,1,4,5,35,old,old,hit,986
1,25,female,native,other,1,1,4,6,35,old,old,hit,1016
1,25,female,native,other,1,1,4,7,35,old,old,hit,572
1,25,female,native,other,1,1,4,8,35,new,new,cr,1058
1,25,female,native,other,1,1,4,9,35,new,new,cr,852
1,25,female,native,other,1,1,4,10,35,new,new,cr,622
1,25,female,native,other,1,1,4,11,35,new,new,cr,810
1,25,female,native,other,1,1,4,12,35,new,new,cr,591
1,25,female,native,other,1,1,4,13,35,new,new,cr,596
1,25,female,native,other,1,1,4,14,35,new,new,cr,609
1,25,female,native,other,1,1,4,15,35,old,old,hit,694
1,25,female,native,other,1,1,4,16,35,new,new,cr,710
1,25,female,native,other,1,1,4,17,35,new,new,cr,830
1,25,female,native,other,1,1,4,18,35,old,old,hit,578
1,25,female,native,other,1,1,4,19,35,old,old,hit,888
1,25,female,native,other,1,1,4,20,35,new,new,cr,657
1,25,female,native,other,1,1,4,21,35,new,new,cr,603
1,25,female,native,other,1,1,4,22,35,new,new,cr,697
1,25,female,native,other,1,1,4,23,35,new,new,cr,506
1,25,female,native,other,1,1,4,24,35,old,old,hit,667
1,25,female,native,other,1,1,4,25,35,new,new,cr,789
1,25,female,native,other,1,1,4,26,35,old,new,miss,530
1,25,female,native,other,1,1,4,27,35,new,new,cr,610
1,25,female,native,other,1,1,4,28,35,old,old,hit,727
1,25,female,native,other,1,1,4,29,35,new,new,cr,1287
1,25,female,native,other,1,1,4,30,35,new,new,cr,663
1,25,female,native,other,1,1,4,31,35,new,old,fa,1153
1,25,female,native,other,1,1,4,32,35,new,new,cr,775
1,25,female,native,other,1,1,4,33,35,new,new,cr,813
1,25,female,native,other,1,1,4,34,35,old,new,miss,681
1,25,female,native,other,1,1,4,35,35,new,new,cr,627
1,25,female,native,other,1,1,4,36,35,old,old,hit,967
1,25,female,native,other,1,1,4,37,35,old,old,hit,885
1,25,female,native,other,1,1,4,38,35,new,new,cr,679
1,25,female,native,other,1,1,4,39,35,new,new,cr,761
1,25,female,native,other,1,1,4,40,35,old,old,hit,679
1,25,female,native,other,1,1,4,41,35,new,new,cr,697
1,25,female,native,other,1,1,4,42,35,old,old,hit,946
1,25,female,native,other,1,1,4,43,35,new,new,cr,913
1,25,female,native,other,1,1,4,44,35,new,new,cr,729
1,25,female,native,other,1,1,4,45,35,old,old,hit,808
1,25,female,native,other,1,1,4,46,35,old,new,miss,949
1,25,female,native,other,1,1,4,47,35,new,new,cr,1091
1,25,female,native,other,1,1,4,48,35,new,new,cr,811
1,25,female,native,other,1,1,4,49,35,new,new,cr,847
1,25,female,native,other,1,1,4,50,35,old,old,hit,722
1,25,female,native,other,1,1,4,51,35,new,new,cr,610
1,25,female,native,other,1,1,4,52,35,new,new,cr,783
1,25,female,native,other,1,1,4,53,35,new,new,cr,748
1,25,female,native,other,1,1,4,54,35,new,new,cr,1059
1,25,female,native,other,1,1,4,55,35,new,new,cr,757
1,25,female,native,other,1,1,4,56,35,old,old,hit,716
1,25,female,native,other,1,1,4,57,35,new,new,cr,924
1,25,female,native,other,1,1,4,58,35,old,old,hit,803
1,25,female,native,other,1,1,4,59,35,new,new,cr,648
1,25,female,native,other,1,1,4,60,35,new,new,cr,764
1,25,female,native,other,1,1,5,1,90,old,old,hit,1129
1,25,female,native,other,1,1,5,2,90,old,old,hit,872
1,25,female,native,other,1,1,5,3,90,old,old,hit,738
1,25,female,native,other,1,1,5,4,90,new,new,cr,720
1,25,female,native,other,1,1,5,5,90,old,old,hit,688
1,25,female,native,other,1,1,5,6,90,old,old,hit,577
1,25,female,native,other,1,1,5,7,90,old,old,hit,631
1,25,female,native,other,1,1,5,8,90,old,old,hit,603
1,25,female,native,other,1,1,5,9,90,old,old,hit,688
1,25,female,native,other,1,1,5,10,90,old,old,hit,1058
1,25,female,native,other,1,1,5,11,90,old,old,hit,547
1,25,female,native,other,1,1,5,12,90,old,new,miss,1131
1,25,female,native,other,1,1,5,13,90,old,old,hit,602
1,25,female,native,other,1,1,5,14,90,old,old,hit,711
1,25,female,native,other,1,1,5,15,90,old,old,hit,1152
1,25,female,native,other,1,1,5,16,90,new,new,cr,678
1,25,female,native,other,1,1,5,17,90,old,old,hit,656
1,25,female,native,other,1,1,5,18,90,new,new,cr,682
1,25,female,native,other,1,1,5,19,90,old,old,hit,668
1,25,female,native,other,1,1,5,20,90,old,old,hit,886
1,25,female,native,other,1,1,5,21,90,old,old,hit,767
1,25,female,native,other,1,1,5,22,90,old,old,hit,854
1,25,female,native,other,1,1,5,23,90,old,old,hit,680
1,25,female,native,other,1,1,5,24,90,old,old,hit,1314
1,25,female,native,other,1,1,5,25,90,old,old,hit,969
1,25,female,native,other,1,1,5,26,90,old,old,hit,1119
1,25,female,native,other,1,1,5,27,90,old,old,hit,751
1,25,female,native,other,1,1,5,28,90,old,old,hit,1150
1,25,female,native,other,1,1,5,29,90,old,old,hit,613
1,25,female,native,other,1,1,5,30,90,old,old,hit,777
1,25,female,native,other,1,1,5,31,90,old,old,hit,607
1,25,female,native,other,1,1,5,32,90,old,old,hit,700
1,25,female,native,other,1,1,5,33,90,old,old,hit,661
1,25,female,native,other,1,1,5,34,90,old,old,hit,663
1,25,female,native,other,1,1,5,35,90,new,new,cr,689
1,25,female,native,other,1,1,5,36,90,old,old,hit,658
1,25,female,native,other,1,1,5,37,90,old,old,hit,588
1,25,female,native,other,1,1,5,38,90,old,old,hit,658
1,25,female,native,other,1,1,5,39,90,old,old,hit,700
1,25,female,native,other,1,1,5,40,90,old,old,hit,741
1,25,female,native,other,1,1,5,41,90,old,old,hit,980
1,25,female,native,other,1,1,5,42,90,old,old,hit,762
1,25,female,native,other,1,1,5,43,90,old,old,hit,880
1,25,female,native,other,1,1,5,44,90,old,old,hit,690
1,25,female,native,other,1,1,5,45,90,old,old,hit,755
1,25,female,native,other,1,1,5,46,90,old,old,hit,721
1,25,female,native,other,1,1,5,47,90,old,old,hit,673
1,25,female,native,other,1,1,5,48,90,old,old,hit,883
1,25,female,native,other,1,1,5,49,90,new,new,cr,1284
1,25,female,native,other,1,1,5,50,90,old,old,hit,885
1,25,female,native,other,1,1,5,51,90,old,new,miss,990
1,25,female,native,other,1,1,5,52,90,old,old,hit,994
1,25,female,native,other,1,1,5,53,90,old,old,hit,607
1,25,female,native,other,1,1,5,54,90,old,old,hit,820
1,25,female,native,other,1,1,5,55,90,old,old,hit,608
1,25,female,native,other,1,1,5,56,90,old,old,hit,677
1,25,female,native,other,1,1,5,57,90,old,old,hit,710
1,25,female,native,other,1,1,5,58,90,old,old,hit,791
1,25,female,native,other,1,1,5,59,90,new,new,cr,748
1,25,female,native,other,1,1,5,60,90,old,new,miss,771
1,25,female,native,other,1,2,6,1,75,old,old,hit,1467
1,25,female,native,other,1,2,6,2,75,old,old,hit,612
1,25,female,native,other,1,2,6,3,75,new,new,cr,697
1,25,female,native,other,1,2,6,4,75,new,new,cr,849
1,25,female,native,other,1,2,6,5,75,old,old,hit,548
1,25,female,native,other,1,2,6,6,75,old,old,hit,699
1,25,female,native,other,1,2,6,7,75,old,old,hit,596
1,25,female,native,other,1,2,6,8,75,old,old,hit,578
1,25,female,native,other,1,2,6,9,75,old,old,hit,640
1,25,female,native,other,1,2,6,10,75,old,old,hit,779
1,25,female,native,other,1,2,6,11,75,old,old,hit,664
1,25,female,native,other,1,2,6,12,75,old,old,hit,579
1,25,female,native,other,1,2,6,13,75,new,new,cr,641
1,25,female,native,other,1,2,6,14,75,old,old,hit,684
1,25,female,native,other,1,2,6,15,75,new,old,fa,638
1,25,female,native,other,1,2,6,16,75,old,old,hit,545
1,25,female,native,other,1,2,6,17,75,old,old,hit,729
1,25,female,native,other,1,2,6,18,75,old,old,hit,696
1,25,female,native,other,1,2,6,19,75,old,old,hit,730
1,25,female,native,other,1,2,6,20,75,old,old,hit,681
1,25,female,native,other,1,2,6,21,75,old,new,miss,1194
1,25,female,native,other,1,2,6,22,75,old,old,hit,582
1,25,female,native,other,1,2,6,23,75,old,old,hit,548
1,25,female,native,other,1,2,6,24,75,old,old,hit,716
1,25,female,native,other,1,2,6,25,75,old,old,hit,636
1,25,female,native,other,1,2,6,26,75,old,old,hit,856
1,25,female,native,other,1,2,6,27,75,old,old,hit,602
1,25,female,native,other,1,2,6,28,75,new,old,fa,680
1,25,female,native,other,1,2,6,29,75,new,new,cr,802
1,25,female,native,other,1,2,6,30,75,old,old,hit,1047
1,25,female,native,other,1,2,6,31,75,old,old,hit,505
1,25,female,native,other,1,2,6,32,75,old,new,miss,898
1,25,female,native,other,1,2,6,33,75,new,new,cr,683
1,25,female,native,other,1,2,6,34,75,old,old,hit,597
1,25,female,native,other,1,2,6,35,75,new,old,fa,826
1,25,female,native,other,1,2,6,36,75,old,old,hit,1292
1,25,female,native,other,1,2,6,37,75,old,old,hit,621
1,25,female,native,other,1,2,6,38,75,old,new,miss,849
1,25,female,native,other,1,2,6,39,75,old,old,hit,763
1,25,female,native,other,1,2,6,40,75,old,old,hit,706
1,25,female,native,other,1,2,6,41,75,old,old,hit,962
1,25,female,native,other,1,2,6,42,75,old,old,hit,680
1,25,female,native,other,1,2,6,43,75,new,new,cr,682
1,25,female,native,other,1,2,6,44,75,new,old,fa,780
1,25,female,native,other,1,2,6,45,75,old,old,hit,666
1,25,female,native,other,1,2,6,46,75,old,old,hit,900
1,25,female,native,other,1,2,6,47,75,old,old,hit,837
1,25,female,native,other,1,2,6,48,75,old,old,hit,921
1,25,female,native,other,1,2,6,49,75,old,old,hit,801
1,25,female,native,other,1,2,6,50,75,new,new,cr,838
1,25,female,native,other,1,2,6,51,75,old,old,hit,793
1,25,female,native,other,1,2,6,52,75,old,old,hit,613
1,25,female,native,other,1,2,6,53,75,new,old,fa,801
1,25,female,native,other,1,2,6,54,75,new,old,fa,862
1,25,female,native,other,1,2,6,55,75,old,old,hit,680
1,25,female,native,other,1,2,6,56,75,old,old,hit,698
1,25,female,native,other,1,2,6,57,75,old,new,miss,1075
1,25,female,native,other,1,2,6,58,75,new,new,cr,989
1,25,female,native,other,1,2,6,59,75,old,old,hit,865
1,25,female,native,other,1,2,6,60,75,new,new,cr,756
1,25,female,native,other,1,2,7,1,10,new,new,cr,902
1,25,female,native,other,1,2,7,2,10,new,new,cr,639
1,25,female,native,other,1,2,7,3,10,old,old,hit,643
1,25,female,native,other,1,2,7,4,10,new,new,cr,758
1,25,female,native,other,1,2,7,5,10,new,new,cr,700
1,25,female,native,other,1,2,7,6,10,new,new,cr,677
1,25,female,native,other,1,2,7,7,10,new,new,cr,559
1,25,female,native,other,1,2,7,8,10,new,new,cr,870
1,25,female,native,other,1,2,7,9,10,new,new,cr,583
1,25,female,native,other,1,2,7,10,10,new,new,cr,621
1,25,female,native,other,1,2,7,11,10,new,new,cr,545
1,25,female,native,other,1,2,7,12,10,new,new,cr,896
1,25,female,native,other,1,2,7,13,10,old,old,hit,657
1,25,female,native,other,1,2,7,14,10,new,new,cr,940
1,25,female,native,other,1,2,7,15,10,new,new,cr,722
1,25,female,native,other,1,2,7,16,10,new,new,cr,634
1,25,female,native,other,1,2,7,17,10,old,old,hit,958
1,25,female,native,other,1,2,7,18,10,new,new,cr,660
1,25,female,native,other,1,2,7,19,10,new,new,cr,631
1,25,female,native,other,1,2,7,20,10,new,new,cr,707
1,25,female,native,other,1,2,7,21,10,new,new,cr,1131
1,25,female,native,other,1,2,7,22,10,new,new,cr,786
1,25,female,native,other,1,2,7,23,10,new,new,cr,664
1,25,female,native,other,1,2,7,24,10,new,new,cr,617
1,25,female,native,other,1,2,7,25,10,new,new,cr,694
1,25,female,native,other,1,2,7,26,10,new,new,cr,599
1,25,female,native,other,1,2,7,27,10,new,new,cr,580
1,25,female,native,other,1,2,7,28,10,new,new,cr,666
1,25,female,native,other,1,2,7,29,10,new,new,cr,821
1,25,female,native,other,1,2,7,30,10,new,new,cr,1273
1,25,female,native,other,1,2,7,31,10,new,old,fa,1017
1,25,female,native,other,1,2,7,32,10,new,new,cr,605
1,25,female,native,other,1,2,7,33,10,new,new,cr,874
1,25,female,native,other,1,2,7,34,10,new,new,cr,812
1,25,female,native,other,1,2,7,35,10,new,new,cr,600
1,25,female,native,other,1,2,7,36,10,new,new,cr,1093
1,25,female,native,other,1,2,7,37,10,new,new,cr,1014
1,25,female,native,other,1,2,7,38,10,new,new,cr,698
1,25,female,native,other,1,2,7,39,10,new,new,cr,651
1,25,female,native,other,1,2,7,40,10,new,new,cr,1533
1,25,female,native,other,1,2,7,41,10,new,new,cr,619
1,25,female,native,other,1,2,7,42,10,new,new,cr,1960
1,25,female,native,other,1,2,7,43,10,new,new,cr,644
1,25,female,native,other,1,2,7,44,10,old,old,hit,768
1,25,female,native,other,1,2,7,45,10,new,new,cr,1190
1,25,female,native,other,1,2,7,46,10,new,new,cr,658
1,25,female,native,other,1,2,7,47,10,new,new,cr,789
1,25,female,native,other,1,2,7,48,10,old,old,hit,634
1,25,female,native,other,1,2,7,49,10,new,new,cr,742
1,25,female,native,other,1,2,7,50,10,new,new,cr,733
1,25,female,native,other,1,2,7,51,10,new,new,cr,757
1,25,female,native,other,1,2,7,52,10,new,new,cr,715
1,25,female,native,other,1,2,7,53,10,new,new,cr,667
1,25,female,native,other,1,2,7,54,10,new,new,cr,725
1,25,female,native,other,1,2,7,55,10,new,new,cr,709
1,25,female,native,other,1,2,7,56,10,new,new,cr,917
1,25,female,native,other,1,2,7,57,10,new,new,cr,589
1,25,female,native,other,1,2,7,58,10,new,new,cr,531
1,25,female,native,other,1,2,7,59,10,old,old,hit,955
1,25,female,native,other,1,2,7,60,10,new,new,cr,841
1,25,female,native,other,1,2,8,1,50,old,old,hit,1275
1,25,female,native,other,1,2,8,2,50,old,old,hit,1476
1,25,female,native,other,1,2,8,3,50,new,new,cr,933
1,25,female,native,other,1,2,8,4,50,new,new,cr,716
1,25,female,native,other,1,2,8,5,50,old,old,hit,949
1,25,female,native,other,1,2,8,6,50,new,new,cr,723
1,25,female,native,other,1,2,8,7,50,old,old,hit,723
1,25,female,native,other,1,2,8,8,50,old,old,hit,771
1,25,female,native,other,1,2,8,9,50,old,old,hit,633
1,25,female,native,other,1,2,8,10,50,old,new,miss,797
1,25,female,native,other,1,2,8,11,50,new,new,cr,2194
1,25,female,native,other,1,2,8,12,50,old,old,hit,731
1,25,female,native,other,1,2,8,13,50,old,new,miss,1523
1,25,female,native,other,1,2,8,14,50,old,old,hit,858
1,25,female,native,other,1,2,8,15,50,new,old,fa,884
1,25,female,native,other,1,2,8,16,50,old,old,hit,677
1,25,female,native,other,1,2,8,17,50,new,new,cr,695
1,25,female,native,other,1,2,8,18,50,old,old,hit,880
1,25,female,native,other,1,2,8,19,50,new,new,cr,802
1,25,female,native,other,1,2,8,20,50,new,new,cr,1231
1,25,female,native,other,1,2,8,21,50,old,old,hit,634
1,25,female,native,other,1,2,8,22,50,new,new,cr,1078
1,25,female,native,other,1,2,8,23,50,old,old,hit,895
1,25,female,native,other,1,2,8,24,50,new,new,cr,856
1,25,female,native,other,1,2,8,25,50,new,new,cr,690
1,25,female,native,other,1,2,8,26,50,new,new,cr,906
1,25,female,native,other,1,2,8,27,50,old,old,hit,1338
1,25,female,native,other,1,2,8,28,50,new,new,cr,688
1,25,female,native,other,1,2,8,29,50,old,old,hit,753
1,25,female,native,other,1,2,8,30,50,old,old,hit,832
1,25,female,native,other,1,2,8,31,50,new,new,cr,603
1,25,female,native,other,1,2,8,32,50,old,old,hit,1145
1,25,female,native,other,1,2,8,33,50,old,old,hit,775
1,25,female,native,other,1,2,8,34,50,new,new,cr,1173
1,25,female,native,other,1,2,8,35,50,old,old,hit,826
1,25,female,native,other,1,2,8,36,50,new,new,cr,1325
1,25,female,native,other,1,2,8,37,50,new,new,cr,1484
1,25,female,native,other,1,2,8,38,50,old,old,hit,1429
1,25,female,native,other,1,2,8,39,50,new,new,cr,839
1,25,female,native,other,1,2,8,40,50,new,new,cr,626
1,25,female,native,other,1,2,8,41,50,new,new,cr,981
1,25,female,native,other,1,2,8,42,50,new,new,cr,595
1,25,female,native,other,1,2,8,43,50,old,old,hit,752
1,25,female,native,other,1,2,8,44,50,old,old,hit,695
1,25,female,native,other,1,2,8,45,50,old,old,hit,1192
1,25,female,native,other,1,2,8,46,50,new,new,cr,884
1,25,female,native,other,1,2,8,47,50,old,new,miss,1510
1,25,female,native,other,1,2,8,48,50,new,new,cr,1125
1,25,female,native,other,1,2,8,49,50,old,old,hit,796
1,25,female,native,other,1,2,8,50,50,old,old,hit,1137
1,25,female,native,other,1,2,8,51,50,new,new,cr,840
1,25,female,native,other,1,2,8,52,50,new,new,cr,715
1,25,female,native,other,1,2,8,53,50,old,old,hit,804
1,25,female,native,other,1,2,8,54,50,old,old,hit,1313
1,25,female,native,other,1,2,8,55,50,new,new,cr,776
1,25,female,native,other,1,2,8,56,50,new,new,cr,781
1,25,female,native,other,1,2,8,57,50,new,new,cr,1083
1,25,female,native,other,1,2,8,58,50,old,old,hit,684
1,25,female,native,other,1,2,8,59,50,new,old,fa,1102
1,25,female,native,other,1,2,8,60,50,new,new,cr,950
1,25,female,native,other,1,2,9,1,90,old,old,hit,1081
1,25,female,native,other,1,2,9,2,90,new,new,cr,778
1,25,female,native,other,1,2,9,3,90,new,new,cr,848
1,25,female,native,other,1,2,9,4,90,old,old,hit,635
1,25,female,native,other,1,2,9,5,90,old,old,hit,759
1,25,female,native,other,1,2,9,6,90,old,old,hit,661
1,25,female,native,other,1,2,9,7,90,old,old,hit,584
1,25,female,native,other,1,2,9,8,90,old,old,hit,902
1,25,female,native,other,1,2,9,9,90,old,old,hit,806
1,25,female,native,other,1,2,9,10,90,old,old,hit,659
1,25,female,native,other,1,2,9,11,90,old,old,hit,637
1,25,female,native,other,1,2,9,12,90,new,new,cr,785
1,25,female,native,other,1,2,9,13,90,old,old,hit,623
1,25,female,native,other,1,2,9,14,90,old,old,hit,747
1,25,female,native,other,1,2,9,15,90,old,old,hit,658
1,25,female,native,other,1,2,9,16,90,old,old,hit,635
1,25,female,native,other,1,2,9,17,90,old,old,hit,583
1,25,female,native,other,1,2,9,18,90,old,old,hit,645
1,25,female,native,other,1,2,9,19,90,old,old,hit,720
1,25,female,native,other,1,2,9,20,90,old,old,hit,560
1,25,female,native,other,1,2,9,21,90,old,old,hit,903
1,25,female,native,other,1,2,9,22,90,old,old,hit,688
1,25,female,native,other,1,2,9,23,90,old,old,hit,953
1,25,female,native,other,1,2,9,24,90,old,old,hit,648
1,25,female,native,other,1,2,9,25,90,old,old,hit,643
1,25,female,native,other,1,2,9,26,90,old,old,hit,566
1,25,female,native,other,1,2,9,27,90,old,old,hit,741
1,25,female,native,other,1,2,9,28,90,old,old,hit,988
1,25,female,native,other,1,2,9,29,90,new,new,cr,705
1,25,female,native,other,1,2,9,30,90,old,old,hit,762
1,25,female,native,other,1,2,9,31,90,old,old,hit,735
1,25,female,native,other,1,2,9,32,90,old,old,hit,695
1,25,female,native,other,1,2,9,33,90,old,old,hit,936
1,25,female,native,other,1,2,9,34,90,old,old,hit,639
1,25,female,native,other,1,2,9,35,90,old,old,hit,699
1,25,female,native,other,1,2,9,36,90,old,old,hit,580
1,25,female,native,other,1,2,9,37,90,old,new,miss,1266
1,25,female,native,other,1,2,9,38,90,old,old,hit,659
1,25,female,native,other,1,2,9,39,90,old,old,hit,830
1,25,female,native,other,1,2,9,40,90,old,new,miss,1041
1,25,female,native,other,1,2,9,41,90,old,old,hit,660
1,25,female,native,other,1,2,9,42,90,old,old,hit,638
1,25,female,native,other,1,2,9,43,90,old,old,hit,546
1,25,female,native,other,1,2,9,44,90,old,old,hit,625
1,25,female,native,other,1,2,9,45,90,old,old,hit,653
1,25,female,native,other,1,2,9,46,90,old,old,hit,1272
1,25,female,native,other,1,2,9,47,90,old,old,hit,664
1,25,female,native,other,1,2,9,48,90,new,new,cr,963
1,25,female,native,other,1,2,9,49,90,old,old,hit,905
1,25,female,native,other,1,2,9,50,90,old,old,hit,697
1,25,female,native,other,1,2,9,51,90,old,old,hit,618
1,25,female,native,other,1,2,9,52,90,old,old,hit,663
1,25,female,native,other,1,2,9,53,90,old,old,hit,921
1,25,female,native,other,1,2,9,54,90,new,new,cr,841
1,25,female,native,other,1,2,9,55,90,old,old,hit,611
1,25,female,native,other,1,2,9,56,90,old,old,hit,1296
1,25,female,native,other,1,2,9,57,90,old,old,hit,872
1,25,female,native,other,1,2,9,58,90,old,old,hit,658
1,25,female,native,other,1,2,9,59,90,old,old,hit,596
1,25,female,native,other,1,2,9,60,90,old,old,hit,690
1,25,female,native,other,1,2,10,1,65,old,old,hit,1119
1,25,female,native,other,1,2,10,2,65,old,old,hit,951
1,25,female,native,other,1,2,10,3,65,old,old,hit,765
1,25,female,native,other,1,2,10,4,65,old,old,hit,588
1,25,female,native,other,1,2,10,5,65,new,new,cr,697
1,25,female,native,other,1,2,10,6,65,old,old,hit,1106
1,25,female,native,other,1,2,10,7,65,old,old,hit,706
1,25,female,native,other,1,2,10,8,65,old,old,hit,714
1,25,female,native,other,1,2,10,9,65,new,old,fa,1323
1,25,female,native,other,1,2,10,10,65,old,old,hit,1050
1,25,female,native,other,1,2,10,11,65,new,new,cr,1420
1,25,female,native,other,1,2,10,12,65,old,old,hit,624
1,25,female,native,other,1,2,10,13,65,old,old,hit,796
1,25,female,native,other,1,2,10,14,65,old,old,hit,688
1,25,female,native,other,1,2,10,15,65,old,old,hit,585
1,25,female,native,other,1,2,10,16,65,new,new,cr,1031
1,25,female,native,other,1,2,10,17,65,new,new,cr,770
1,25,female,native,other,1,2,10,18,65,new,old,fa,872
1,25,female,native,other,1,2,10,19,65,new,new,cr,746
1,25,female,native,other,1,2,10,20,65,old,old,hit,777
1,25,female,native,other,1,2,10,21,65,old,old,hit,727
1,25,female,native,other,1,2,10,22,65,new,new,cr,814
1,25,female,native,other,1,2,10,23,65,old,old,hit,875
1,25,female,native,other,1,2,10,24,65,new,old,fa,804
1,25,female,native,other,1,2,10,25,65,new,new,cr,960
1,25,female,native,other,1,2,10,26,65,old,old,hit,839
1,25,female,native,other,1,2,10,27,65,old,old,hit,761
1,25,female,native,other,1,2,10,28,65,old,old,hit,704
1,25,female,native,other,1,2,10,29,65,old,old,hit,753
1,25,female,native,other,1,2,10,30,65,new,new,cr,799
1,25,female,native,other,1,2,10,31,65,old,old,hit,900
1,25,female,native,other,1,2,10,32,65,old,old,hit,645
1,25,female,native,other,1,2,10,33,65,old,new,miss,1336
1,25,female,native,other,1,2,10,34,65,old,old,hit,703
1,25,female,native,other,1,2,10,35,65,old,old,hit,776
1,25,female,native,other,1,2,10,36,65,old,old,hit,854
1,25,female,native,other,1,2,10,37,65,new,new,cr,921
1,25,female,native,other,1,2,10,38,65,new,new,cr,953
1,25,female,native,other,1,2,10,39,65,new,new,cr,1255
1,25,female,native,other,1,2,10,40,65,new,new,cr,817
1,25,female,native,other,1,2,10,41,65,new,new,cr,917
1,25,female,native,other,1,2,10,42,65,old,old,hit,853
1,25,female,native,other,1,2,10,43,65,old,old,hit,1312
1,25,female,native,other,1,2,10,44,65,new,new,cr,711
1,25,female,native,other,1,2,10,45,65,new,new,cr,999
1,25,female,native,other,1,2,10,46,65,old,old,hit,652
1,25,female,native,other,1,2,10,47,65,old,old,hit,623
1,25,female,native,other,1,2,10,48,65,old,old,hit,707
1,25,female,native,other,1,2,10,49,65,old,old,hit,756
1,25,female,native,other,1,2,10,50,65,old,old,hit,826
1,25,female,native,other,1,2,10,51,65,new,new,cr,710
1,25,female,native,other,1,2,10,52,65,old,old,hit,886
1,25,female,native,other,1,2,10,53,65,old,old,hit,1783
1,25,female,native,other,1,2,10,54,65,old,old,hit,660
1,25,female,native,other,1,2,10,55,65,old,old,hit,998
1,25,female,native,other,1,2,10,56,65,new,new,cr,971
1,25,female,native,other,1,2,10,57,65,new,new,cr,977
1,25,female,native,other,1,2,10,58,65,old,old,hit,1126
1,25,female,native,other,1,2,10,59,65,old,old,hit,892
1,25,female,native,other,1,2,10,60,65,old,old,hit,829
1,25,female,native,other,1,2,11,1,10,new,new,cr,1266
1,25,female,native,other,1,2,11,2,10,new,new,cr,732
1,25,female,native,other,1,2,11,3,10,new,new,cr,684
1,25,female,native,other,1,2,11,4,10,new,new,cr,709
1,25,female,native,other,1,2,11,5,10,new,new,cr,558
1,25,female,native,other,1,2,11,6,10,new,new,cr,677
1,25,female,native,other,1,2,11,7,10,new,new,cr,726
1,25,female,native,other,1,2,11,8,10,new,new,cr,774
1,25,female,native,other,1,2,11,9,10,new,new,cr,788
1,25,female,native,other,1,2,11,10,10,new,new,cr,1073
1,25,female,native,other,1,2,11,11,10,new,new,cr,1122
1,25,female,native,other,1,2,11,12,10,new,new,cr,664
1,25,female,native,other,1,2,11,13,10,new,new,cr,915
1,25,female,native,other,1,2,11,14,10,new,new,cr,595
1,25,female,native,other,1,2,11,15,10,new,new,cr,1248
1,25,female,native,other,1,2,11,16,10,new,new,cr,898
1,25,female,native,other,1,2,11,17,10,new,new,cr,875
1,25,female,native,other,1,2,11,18,10,new,new,cr,549
1,25,female,native,other,1,2,11,19,10,new,new,cr,588
1,25,female,native,other,1,2,11,20,10,new,new,cr,665
1,25,female,native,other,1,2,11,21,10,new,new,cr,644
1,25,female,native,other,1,2,11,22,10,old,new,miss,1207
1,25,female,native,other,1,2,11,23,10,old,new,miss,715
1,25,female,native,other,1,2,11,24,10,new,new,cr,803
1,25,female,native,other,1,2,11,25,10,new,new,cr,1024
1,25,female,native,other,1,2,11,26,10,new,new,cr,620
1,25,female,native,other,1,2,11,27,10,new,new,cr,696
1,25,female,native,other,1,2,11,28,10,new,old,fa,665
1,25,female,native,other,1,2,11,29,10,new,new,cr,747
1,25,female,native,other,1,2,11,30,10,old,old,hit,786
1,25,female,native,other,1,2,11,31,10,new,new,cr,880
1,25,female,native,other,1,2,11,32,10,new,new,cr,897
1,25,female,native,other,1,2,11,33,10,new,new,cr,898
1,25,female,native,other,1,2,11,34,10,new,new,cr,619
1,25,female,native,other,1,2,11,35,10,new,new,cr,631
1,25,female,native,other,1,2,11,36,10,new,new,cr,683
1,25,female,native,other,1,2,11,37,10,new,new,cr,725
1,25,female,native,other,1,2,11,38,10,new,new,cr,661
1,25,female,native,other,1,2,11,39,10,new,new,cr,671
1,25,female,native,other,1,2,11,40,10,new,new,cr,753
1,25,female,native,other,1,2,11,41,10,old,old,hit,800
1,25,female,native,other,1,2,11,42,10,new,new,cr,1013
1,25,female,native,other,1,2,11,43,10,new,new,cr,625
1,25,female,native,other,1,2,11,44,10,new,new,cr,1676
1,25,female,native,other,1,2,11,45,10,new,new,cr,692
1,25,female,native,other,1,2,11,46,10,new,new,cr,638
1,25,female,native,other,1,2,11,47,10,new,new,cr,577
1,25,female,native,other,1,2,11,48,10,new,new,cr,1087
1,25,female,native,other,1,2,11,49,10,old,old,hit,888
1,25,female,native,other,1,2,11,50,10,new,new,cr,873
1,25,female,native,other,1,2,11,51,10,old,old,hit,930
1,25,female,native,other,1,2,11,52,10,new,new,cr,874
1,25,female,native,other,1,2,11,53,10,new,new,cr,795
1,25,female,native,other,1,2,11,54,10,new,new,cr,936
1,25,female,native,other,1,2,11,55,10,new,new,cr,992
1,25,female,native,other,1,2,11,56,10,new,new,cr,860
1,25,female,native,other,1,2,11,57,10,new,new,cr,735
1,25,female,native,other,1,2,11,58,10,new,new,cr,1013
1,25,female,native,other,1,2,11,59,10,new,new,cr,585
1,25,female,native,other,1,2,11,60,10,new,new,cr,559
1,25,female,native,other,1,3,12,1,25,old,old,hit,1138
1,25,female,native,other,1,3,12,2,25,new,new,cr,736
1,25,female,native,other,1,3,12,3,25,new,new,cr,888
1,25,female,native,other,1,3,12,4,25,new,new,cr,713
1,25,female,native,other,1,3,12,5,25,old,old,hit,873
1,25,female,native,other,1,3,12,6,25,old,old,hit,635
1,25,female,native,other,1,3,12,7,25,new,new,cr,1055
1,25,female,native,other,1,3,12,8,25,old,old,hit,1329
1,25,female,native,other,1,3,12,9,25,new,new,cr,759
1,25,female,native,other,1,3,12,10,25,old,old,hit,1725
1,25,female,native,other,1,3,12,11,25,new,new,cr,875
1,25,female,native,other,1,3,12,12,25,new,new,cr,612
1,25,female,native,other,1,3,12,13,25,new,new,cr,657
1,25,female,native,other,1,3,12,14,25,old,new,miss,884
1,25,female,native,other,1,3,12,15,25,old,old,hit,693
1,25,female,native,other,1,3,12,16,25,new,new,cr,1158
1,25,female,native,other,1,3,12,17,25,new,new,cr,1604
1,25,female,native,other,1,3,12,18,25,old,old,hit,824
1,25,female,native,other,1,3,12,19,25,new,new,cr,1315
1,25,female,native,other,1,3,12,20,25,new,new,cr,715
1,25,female,native,other,1,3,12,21,25,old,old,hit,947
1,25,female,native,other,1,3,12,22,25,new,new,cr,714
1,25,female,native,other,1,3,12,23,25,new,new,cr,810
1,25,female,native,other,1,3,12,24,25,new,new,cr,1247
1,25,female,native,other,1,3,12,25,25,new,new,cr,720
1,25,female,native,other,1,3,12,26,25,new,new,cr,568
1,25,female,native,other,1,3,12,27,25,new,new,cr,687
1,25,female,native,other,1,3,12,28,25,new,new,cr,680
1,25,female,native,other,1,3,12,29,25,new,new,cr,722
1,25,female,native,other,1,3,12,30,25,old,old,hit,658
1,25,female,native,other,1,3,12,31,25,new,new,cr,692
1,25,female,native,other,1,3,12,32,25,new,new,cr,917
1,25,female,native,other,1,3,12,33,25,new,new,cr,862
1,25,female,native,other,1,3,12,34,25,new,new,cr,696
1,25,female,native,other,1,3,12,35,25,new,new,cr,705
1,25,female,native,other,1,3,12,36,25,old,old,hit,793
1,25,female,native,other,1,3,12,37,25,new,new,cr,886
1,25,female,native,other,1,3,12,38,25,new,new,cr,848
1,25,female,native,other,1,3,12,39,25,new,new,cr,827
1,25,female,native,other,1,3,12,40,25,old,old,hit,749
1,25,female,native,other,1,3,12,41,25,new,new,cr,1140
1,25,female,native,other,1,3,12,42,25,old,old,hit,699
1,25,female,native,other,1,3,12,43,25,new,new,cr,748
1,25,female,native,other,1,3,12,44,25,new,new,cr,731
1,25,female,native,other,1,3,12,45,25,new,new,cr,683
1,25,female,native,other,1,3,12,46,25,new,new,cr,621
1,25,female,native,other,1,3,12,47,25,new,new,cr,1065
1,25,female,native,other,1,3,12,48,25,new,new,cr,563
1,25,female,native,other,1,3,12,49,25,new,new,cr,513
1,25,female,native,other,1,3,12,50,25,old,old,hit,738
1,25,female,native,other,1,3,12,51,25,new,new,cr,689
1,25,female,native,other,1,3,12,52,25,new,new,cr,754
1,25,female,native,other,1,3,12,53,25,new,new,cr,1337
1,25,female,native,other,1,3,12,54,25,new,new,cr,711
1,25,female,native,other,1,3,12,55,25,new,new,cr,831
1,25,female,native,other,1,3,12,56,25,new,new,cr,634
1,25,female,native,other,1,3,12,57,25,new,new,cr,550
1,25,female,native,other,1,3,12,58,25,new,new,cr,806
1,25,female,native,other,1,3,12,59,25,new,new,cr,634
1,25,female,native,other,1,3,12,60,25,old,old,hit,1774
1,25,female,native,other,1,3,13,1,90,old,old,hit,1238
1,25,female,native,other,1,3,13,2,90,old,old,hit,721
1,25,female,native,other,1,3,13,3,90,old,old,hit,624
1,25,female,native,other,1,3,13,4,90,old,old,hit,620
1,25,female,native,other,1,3,13,5,90,old,old,hit,680
1,25,female,native,other,1,3,13,6,90,old,new,miss,786
1,25,female,native,other,1,3,13,7,90,old,old,hit,616
1,25,female,native,other,1,3,13,8,90,old,old,hit,644
1,25,female,native,other,1,3,13,9,90,old,old,hit,576
1,25,female,native,other,1,3,13,10,90,old,old,hit,558
1,25,female,native,other,1,3,13,11,90,old,old,hit,660
1,25,female,native,other,1,3,13,12,90,old,old,hit,655
1,25,female,native,other,1,3,13,13,90,old,old,hit,609
1,25,female,native,other,1,3,13,14,90,old,old,hit,566
1,25,female,native,other,1,3,13,15,90,old,old,hit,629
1,25,female,native,other,1,3,13,16,90,old,old,hit,1041
1,25,female,native,other,1,3,13,17,90,old,old,hit,627
1,25,female,native,other,1,3,13,18,90,old,old,hit,550
1,25,female,native,other,1,3,13,19,90,old,old,hit,605
1,25,female,native,other,1,3,13,20,90,old,old,hit,570
1,25,female,native,other,1,3,13,21,90,old,old,hit,512
1,25,female,native,other,1,3,13,22,90,old,old,hit,801
1,25,female,native,other,1,3,13,23,90,new,new,cr,854
1,25,female,native,other,1,3,13,24,90,old,old,hit,816
1,25,female,native,other,1,3,13,25,90,old,old,hit,1052
1,25,female,native,other,1,3,13,26,90,old,old,hit,639
1,25,female,native,other,1,3,13,27,90,old,old,hit,602
1,25,female,native,other,1,3,13,28,90,old,old,hit,647
1,25,female,native,other,1,3,13,29,90,old,old,hit,611
1,25,female,native,other,1,3,13,30,90,old,old,hit,567
1,25,female,native,other,1,3,13,31,90,new,new,cr,1110
1,25,female,native,other,1,3,13,32,90,new,new,cr,678
1,25,female,native,other,1,3,13,33,90,old,old,hit,584
1,25,female,native,other,1,3,13,34,90,old,old,hit,941
1,25,female,native,other,1,3,13,35,90,old,old,hit,619
1,25,female,native,other,1,3,13,36,90,new,new,cr,976
1,25,female,native,other,1,3,13,37,90,old,old,hit,693
1,25,female,native,other,1,3,13,38,90,old,old,hit,774
1,25,female,native,other,1,3,13,39,90,old,old,hit,572
1,25,female,native,other,1,3,13,40,90,old,old,hit,698
1,25,female,native,other,1,3,13,41,90,old,old,hit,643
1,25,female,native,other,1,3,13,42,90,old,old,hit,655
1,25,female,native,other,1,3,13,43,90,old,old,hit,593
1,25,female,native,other,1,3,13,44,90,old,old,hit,838
1,25,female,native,other,1,3,13,45,90,old,old,hit,737
1,25,female,native,other,1,3,13,46,90,old,old,hit,897
1,25,female,native,other,1,3,13,47,90,new,new,cr,1170
1,25,female,native,other,1,3,13,48,90,old,old,hit,648
1,25,female,native,other,1,3,13,49,90,new,new,cr,763
1,25,female,native,other,1,3,13,50,90,old,old,hit,1032
1,25,female,native,other,1,3,13,51,90,old,old,hit,627
1,25,female,native,other,1,3,13,52,90,old,old,hit,623
1,25,female,native,other,1,3,13,53,90,old,old,hit,1107
1,25,female,native,other,1,3,13,54,90,old,old,hit,1083
1,25,female,native,other,1,3,13,55,90,old,old,hit,828
1,25,female,native,other,1,3,13,56,90,old,old,hit,2160
1,25,female,native,other,1,3,13,57,90,old,old,hit,2084
1,25,female,native,other,1,3,13,58,90,old,old,hit,636
1,25,female,native,other,1,3,13,59,90,old,old,hit,1024
1,25,female,native,other,1,3,13,60,90,old,old,hit,803
1,25,female,native,other,1,3,14,1,65,new,new,cr,1721
1,25,female,native,other,1,3,14,2,65,old,old,hit,640
1,25,female,native,other,1,3,14,3,65,new,new,cr,627
1,25,female,native,other,1,3,14,4,65,old,old,hit,727
1,25,female,native,other,1,3,14,5,65,old,old,hit,639
1,25,female,native,other,1,3,14,6,65,old,old,hit,666
1,25,female,native,other,1,3,14,7,65,new,new,cr,884
1,25,female,native,other,1,3,14,8,65,new,new,cr,1070
1,25,female,native,other,1,3,14,9,65,new,new,cr,800
1,25,female,native,other,1,3,14,10,65,old,old,hit,917
1,25,female,native,other,1,3,14,11,65,old,old,hit,1084
1,25,female,native,other,1,3,14,12,65,old,old,hit,1645
1,25,female,native,other,1,3,14,13,65,old,old,hit,687
1,25,female,native,other,1,3,14,14,65,new,new,cr,752
1,25,female,native,other,1,3,14,15,65,old,old,hit,663
1,25,female,native,other,1,3,14,16,65,old,old,hit,618
1,25,female,native,other,1,3,14,17,65,new,new,cr,1622
1,25,female,native,other,1,3,14,18,65,old,old,hit,640
1,25,female,native,other,1,3,14,19,65,old,old,hit,676
1,25,female,native,other,1,3,14,20,65,old,old,hit,670
1,25,female,native,other,1,3,14,21,65,old,old,hit,752
1,25,female,native,other,1,3,14,22,65,old,old,hit,607
1,25,female,native,other,1,3,14,23,65,old,old,hit,548
1,25,female,native,other,1,3,14,24,65,old,old,hit,851
1,25,female,native,other,1,3,14,25,65,new,new,cr,822
1,25,female,native,other,1,3,14,26,65,new,new,cr,825
1,25,female,native,other,1,3,14,27,65,old,old,hit,932
1,25,female,native,other,1,3,14,28,65,old,old,hit,660
1,25,female,native,other,1,3,14,29,65,new,new,cr,734
1,25,female,native,other,1,3,14,30,65,new,old,fa,1374
1,25,female,native,other,1,3,14,31,65,old,old,hit,643
1,25,female,native,other,1,3,14,32,65,old,old,hit,622
1,25,female,native,other,1,3,14,33,65,old,old,hit,706
1,25,female,native,other,1,3,14,34,65,old,old,hit,634
1,25,female,native,other,1,3,14,35,65,new,old,fa,678
1,25,female,native,other,1,3,14,36,65,old,old,hit,1072
1,25,female,native,other,1,3,14,37,65,old,old,hit,681
1,25,female,native,other,1,3,14,38,65,new,old,fa,819
1,25,female,native,other,1,3,14,39,65,new,new,cr,839
1,25,female,native,other,1,3,14,40,65,new,new,cr,898
1,25,female,native,other,1,3,14,41,65,old,old,hit,603
1,25,female,native,other,1,3,14,42,65,old,old,hit,839
1,25,female,native,other,1,3,14,43,65,old,old,hit,610
1,25,female,native,other,1,3,14,44,65,old,old,hit,991
1,25,female,native,other,1,3,14,45,65,new,new,cr,756
1,25,female,native,other,1,3,14,46,65,old,old,hit,698
1,25,female,native,other,1,3,14,47,65,new,new,cr,931
1,25,female,native,other,1,3,14,48,65,old,old,hit,882
1,25,female,native,other,1,3,14,49,65,new,old,fa,1044
1,25,female,native,other,1,3,14,50,65,new,old,fa,719
1,25,female,native,other,1,3,14,51,65,old,old,hit,1079
1,25,female,native,other,1,3,14,52,65,new,new,cr,1088
1,25,female,native,other,1,3,14,53,65,new,old,fa,1025
1,25,female,native,other,1,3,14,54,65,old,old,hit,764
1,25,female,native,other,1,3,14,55,65,old,old,hit,1482
1,25,female,native,other,1,3,14,56,65,old,old,hit,771
1,25,female,native,other,1,3,14,57,65,old,old,hit,704
1,25,female,native,other,1,3,14,58,65,old,old,hit,569
1,25,female,native,other,1,3,14,59,65,old,old,hit,975
1,25,female,native,other,1,3,14,60,65,old,old,hit,1045
1,25,female,native,other,1,3,15,1,10,new,new,cr,827
1,25,female,native,other,1,3,15,2,10,new,new,cr,662
1,25,female,native,other,1,3,15,3,10,new,new,cr,745
1,25,female,native,other,1,3,15,4,10,new,new,cr,632
1,25,female,native,other,1,3,15,5,10,new,new,cr,564
1,25,female,native,other,1,3,15,6,10,new,new,cr,643
1,25,female,native,other,1,3,15,7,10,new,new,cr,726
1,25,female,native,other,1,3,15,8,10,new,new,cr,725
1,25,female,native,other,1,3,15,9,10,new,new,cr,757
1,25,female,native,other,1,3,15,10,10,new,new,cr,836
1,25,female,native,other,1,3,15,11,10,new,new,cr,1183
1,25,female,native,other,1,3,15,12,10,new,new,cr,580
1,25,female,native,other,1,3,15,13,10,new,new,cr,610
1,25,female,native,other,1,3,15,14,10,old,old,hit,863
1,25,female,native,other,1,3,15,15,10,new,new,cr,617
1,25,female,native,other,1,3,15,16,10,new,new,cr,1277
1,25,female,native,other,1,3,15,17,10,new,new,cr,710
1,25,female,native,other,1,3,15,18,10,new,new,cr,614
1,25,female,native,other,1,3,15,19,10,new,new,cr,715
1,25,female,native,other,1,3,15,20,10,old,old,hit,715
1,25,female,native,other,1,3,15,21,10,new,new,cr,748
1,25,female,native,other,1,3,15,22,10,new,new,cr,627
1,25,female,native,other,1,3,15,23,10,new,new,cr,638
1,25,female,native,other,1,3,15,24,10,new,new,cr,1618
1,25,female,native,other,1,3,15,25,10,new,old,fa,1373
1,25,female,native,other,1,3,15,26,10,new,new,cr,777
1,25,female,native,other,1,3,15,27,10,new,new,cr,703
1,25,female,native,other,1,3,15,28,10,new,new,cr,688
1,25,female,native,other,1,3,15,29,10,new,new,cr,833
1,25,female,native,other,1,3,15,30,10,new,new,cr,621
1,25,female,native,other,1,3,15,31,10,new,new,cr,697
1,25,female,native,other,1,3,15,32,10,old,old,hit,945
1,25,female,native,other,1,3,15,33,10,new,old,fa,2152
1,25,female,native,other,1,3,15,34,10,new,new,cr,725
1,25,female,native,other,1,3,15,35,10,new,new,cr,732
1,25,female,native,other,1,3,15,36,10,new,new,cr,844
1,25,female,native,other,1,3,15,37,10,new,new,cr,687
1,25,female,native,other,1,3,15,38,10,new,new,cr,720
1,25,female,native,other,1,3,15,39,10,new,new,cr,697
1,25,female,native,other,1,3,15,40,10,new,new,cr,682
1,25,female,native,other,1,3,15,41,10,new,new,cr,516
1,25,female,native,other,1,3,15,42,10,old,old,hit,660
1,25,female,native,other,1,3,15,43,10,new,new,cr,615
1,25,female,native,other,1,3,15,44,10,new,new,cr,620
1,25,female,native,other,1,3,15,45,10,new,new,cr,688
1,25,female,native,other,1,3,15,46,10,old,old,hit,705
1,25,female,native,other,1,3,15,47,10,new,new,cr,649
1,25,female,native,other,1,3,15,48,10,new,new,cr,1164
1,25,female,native,other,1,3,15,49,10,new,new,cr,722
1,25,female,native,other,1,3,15,50,10,new,new,cr,793
1,25,female,native,other,1,3,15,51,10,new,new,cr,686
1,25,female,native,other,1,3,15,52,10,new,new,cr,832
1,25,female,native,other,1,3,15,53,10,new,new,cr,1132
1,25,female,native,other,1,3,15,54,10,new,new,cr,707
1,25,female,native,other,1,3,15,55,10,new,new,cr,539
1,25,female,native,other,1,3,15,56,10,new,new,cr,531
1,25,female,native,other,1,3,15,57,10,new,new,cr,1123
1,25,female,native,other,1,3,15,58,10,new,new,cr,706
1,25,female,native,other,1,3,15,59,10,new,new,cr,546
1,25,female,native,other,1,3,15,60,10,old,new,miss,522
1,25,female,native,other,1,3,16,1,75,old,old,hit,1221
1,25,female,native,other,1,3,16,2,75,new,new,cr,1112
1,25,female,native,other,1,3,16,3,75,old,old,hit,808
1,25,female,native,other,1,3,16,4,75,old,old,hit,973
1,25,female,native,other,1,3,16,5,75,new,new,cr,722
1,25,female,native,other,1,3,16,6,75,old,old,hit,618
1,25,female,native,other,1,3,16,7,75,new,new,cr,1062
1,25,female,native,other,1,3,16,8,75,old,old,hit,632
1,25,female,native,other,1,3,16,9,75,old,old,hit,804
1,25,female,native,other,1,3,16,10,75,old,old,hit,960
1,25,female,native,other,1,3,16,11,75,old,old,hit,750
1,25,female,native,other,1,3,16,12,75,old,old,hit,653
1,25,female,native,other,1,3,16,13,75,old,old,hit,1392
1,25,female,native,other,1,3,16,14,75,old,new,miss,1716
1,25,female,native,other,1,3,16,15,75,old,old,hit,667
1,25,female,native,other,1,3,16,16,75,old,old,hit,757
1,25,female,native,other,1,3,16,17,75,new,new,cr,1108
1,25,female,native,other,1,3,16,18,75,old,old,hit,1203
1,25,female,native,other,1,3,16,19,75,new,new,cr,1048
1,25,female,native,other,1,3,16,20,75,old,old,hit,650
1,25,female,native,other,1,3,16,21,75,new,new,cr,725
1,25,female,native,other,1,3,16,22,75,old,old,hit,1061
1,25,female,native,other,1,3,16,23,75,old,old,hit,783
1,25,female,native,other,1,3,16,24,75,old,old,hit,716
1,25,female,native,other,1,3,16,25,75,old,old,hit,1076
1,25,female,native,other,1,3,16,26,75,new,new,cr,765
1,25,female,native,other,1,3,16,27,75,old,old,hit,2116
1,25,female,native,other,1,3,16,28,75,old,old,hit,722
1,25,female,native,other,1,3,16,29,75,new,new,cr,1186
1,25,female,native,other,1,3,16,30,75,old,new,miss,2799
1,25,female,native,other,1,3,16,31,75,old,new,miss,945
1,25,female,native,other,1,3,16,32,75,old,old,hit,599
1,25,female,native,other,1,3,16,33,75,old,old,hit,965
1,25,female,native,other,1,3,16,34,75,old,old,hit,651
1,25,female,native,other,1,3,16,35,75,old,old,hit,582
1,25,female,native,other,1,3,16,36,75,old,old,hit,740
1,25,female,native,other,1,3,16,37,75,new,new,cr,819
1,25,female,native,other,1,3,16,38,75,old,old,hit,639
1,25,female,native,other,1,3,16,39,75,old,old,hit,1586
1,25,female,native,other,1,3,16,40,75,new,new,cr,1238
1,25,female,native,other,1,3,16,41,75,old,old,hit,1064
1,25,female,native,other,1,3,16,42,75,old,old,hit,618
1,25,female,native,other,1,3,16,43,75,old,old,hit,839
1,25,female,native,other,1,3,16,44,75,old,old,hit,2282
1,25,female,native,other,1,3,16,45,75,old,old,hit,873
1,25,female,native,other,1,3,16,46,75,old,old,hit,714
1,25,female,native,other,1,3,16,47,75,old,old,hit,611
1,25,female,native,other,1,3,16,48,75,new,new,cr,1071
1,25,female,native,other,1,3,16,49,75,new,new,cr,985
1,25,female,native,other,1,3,16,50,75,new,new,cr,822
1,25,female,native,other,1,3,16,51,75,old,old,hit,626
1,25,female,native,other,1,3,16,52,75,old,old,hit,718
1,25,female,native,other,1,3,16,53,75,old,new,miss,813
1,25,female,native,other,1,3,16,54,75,old,old,hit,601
1,25,female,native,other,1,3,16,55,75,new,new,cr,1119
1,25,female,native,other,1,3,16,56,75,new,new,cr,950
1,25,female,native,other,1,3,16,57,75,old,old,hit,813
1,25,female,native,other,1,3,16,58,75,old,old,hit,649
1,25,female,native,other,1,3,16,59,75,old,old,hit,797
1,25,female,native,other,1,3,16,60,75,old,old,hit,962
1,25,female,native,other,2,1,17,1,90,old,old,hit,1413
1,25,female,native,other,2,1,17,2,90,old,old,hit,736
1,25,female,native,other,2,1,17,3,90,new,new,cr,672
1,25,female,native,other,2,1,17,4,90,old,old,hit,682
1,25,female,native,other,2,1,17,5,90,old,old,hit,956
1,25,female,native,other,2,1,17,6,90,old,old,hit,858
1,25,female,native,other,2,1,17,7,90,old,old,hit,764
1,25,female,native,other,2,1,17,8,90,old,old,hit,786
1,25,female,native,other,2,1,17,9,90,old,old,hit,856
1,25,female,native,other,2,1,17,10,90,old,old,hit,722
1,25,female,native,other,2,1,17,11,90,new,new,cr,906
1,25,female,native,other,2,1,17,12,90,old,old,hit,858
1,25,female,native,other,2,1,17,13,90,old,old,hit,612
1,25,female,native,other,2,1,17,14,90,old,old,hit,625
1,25,female,native,other,2,1,17,15,90,old,old,hit,805
1,25,female,native,other,2,1,17,16,90,old,old,hit,1001
1,25,female,native,other,2,1,17,17,90,old,old,hit,581
1,25,female,native,other,2,1,17,18,90,old,old,hit,675
1,25,female,native,other,2,1,17,19,90,old,old,hit,797
1,25,female,native,other,2,1,17,20,90,old,old,hit,970
1,25,female,native,other,2,1,17,21,90,old,old,hit,744
1,25,female,native,other,2,1,17,22,90,old,old,hit,599
1,25,female,native,other,2,1,17,23,90,old,old,hit,740
1,25,female,native,other,2,1,17,24,90,old,old,hit,643
1,25,female,native,other,2,1,17,25,90,old,old,hit,846
1,25,female,native,other,2,1,17,26,90,old,new,miss,905
1,25,female,native,other,2,1,17,27,90,old,old,hit,1329
1,25,female,native,other,2,1,17,28,90,old,old,hit,792
1,25,female,native,other,2,1,17,29,90,old,old,hit,845
1,25,female,native,other,2,1,17,30,90,old,old,hit,831
1,25,female,native,other,2,1,17,31,90,old,old,hit,707
1,25,female,native,other,2,1,17,32,90,old,old,hit,1243
1,25,female,native,other,2,1,17,33,90,old,old,hit,734
1,25,female,native,other,2,1,17,34,90,old,new,miss,797
1,25,female,native,other,2,1,17,35,90,old,old,hit,674
1,25,female,native,other,2,1,17,36,90,old,old,hit,940
1,25,female,native,other,2,1,17,37,90,old,old,hit,691
1,25,female,native,other,2,1,17,38,90,old,old,hit,636
1,25,female,native,other,2,1,17,39,90,new,new,cr,824
1,25,female,native,other,2,1,17,40,90,old,new,miss,1092
1,25,female,native,other,2,1,17,41,90,old,old,hit,668
1,25,female,native,other,2,1,17,42,90,old,old,hit,671
1,25,female,native,other,2,1,17,43,90,old,old,hit,689
1,25,female,native,other,2,1,17,44,90,old,old,hit,810
1,25,female,native,other,2,1,17,45,90,old,new,miss,1198
1,25,female,native,other,2,1,17,46,90,old,old,hit,642
1,25,female,native,other,2,1,17,47,90,new,old,fa,1157
1,25,female,native,other,2,1,17,48,90,old,old,hit,963
1,25,female,native,other,2,1,17,49,90,old,old,hit,593
1,25,female,native,other,2,1,17,50,90,old,old,hit,758
1,25,female,native,other,2,1,17,51,90,old,old,hit,836
1,25,female,native,other,2,1,17,52,90,new,new,cr,792
1,25,female,native,other,2,1,17,53,90,old,old,hit,2157
1,25,female,native,other,2,1,17,54,90,old,old,hit,665
1,25,female,native,other,2,1,17,55,90,old,old,hit,691
1,25,female,native,other,2,1,17,56,90,old,old,hit,845
1,25,female,native,other,2,1,17,57,90,old,old,hit,679
1,25,female,native,other,2,1,17,58,90,old,old,hit,777
1,25,female,native,other,2,1,17,59,90,old,old,hit,631
1,25,female,native,other,2,1,17,60,90,new,new,cr,1579
1,25,female,native,other,2,1,18,1,25,new,new,cr,1563
1,25,female,native,other,2,1,18,2,25,old,old,hit,792
1,25,female,native,other,2,1,18,3,25,old,old,hit,789
1,25,female,native,other,2,1,18,4,25,new,new,cr,1090
1,25,female,native,other,2,1,18,5,25,new,new,cr,778
1,25,female,native,other,2,1,18,6,25,new,new,cr,968
1,25,female,native,other,2,1,18,7,25,new,new,cr,574
1,25,female,native,other,2,1,18,8,25,new,new,cr,740
1,25,female,native,other,2,1,18,9,25,new,new,cr,723
1,25,female,native,other,2,1,18,10,25,new,new,cr,619
1,25,female,native,other,2,1,18,11,25,new,new,cr,695
1,25,female,native,other,2,1,18,12,25,new,new,cr,720
1,25,female,native,other,2,1,18,13,25,new,new,cr,545
1,25,female,native,other,2,1,18,14,25,new,new,cr,496
1,25,female,native,other,2,1,18,15,25,new,new,cr,1090
1,25,female,native,other,2,1,18,16,25,new,new,cr,634
1,25,female,native,other,2,1,18,17,25,old,old,hit,1054
1,25,female,native,other,2,1,18,18,25,new,new,cr,840
1,25,female,native,other,2,1,18,19,25,new,new,cr,682
1,25,female,native,other,2,1,18,20,25,new,new,cr,612
1,25,female,native,other,2,1,18,21,25,new,new,cr,665
1,25,female,native,other,2,1,18,22,25,old,old,hit,1187
1,25,female,native,other,2,1,18,23,25,new,new,cr,688
1,25,female,native,other,2,1,18,24,25,old,old,hit,985
1,25,female,native,other,2,1,18,25,25,new,new,cr,638
1,25,female,native,other,2,1,18,26,25,new,new,cr,705
1,25,female,native,other,2,1,18,27,25,new,new,cr,690
1,25,female,native,other,2,1,18,28,25,new,new,cr,643
1,25,female,native,other,2,1,18,29,25,new,new,cr,646
1,25,female,native,other,2,1,18,30,25,old,old,hit,1201
1,25,female,native,other,2,1,18,31,25,new,new,cr,750
1,25,female,native,other,2,1,18,32,25,new,new,cr,597
1,25,female,native,other,2,1,18,33,25,new,new,cr,514
1,25,female,native,other,2,1,18,34,25,new,new,cr,979
1,25,female,native,other,2,1,18,35,25,old,old,hit,680
1,25,female,native,other,2,1,18,36,25,old,old,hit,738
1,25,female,native,other,2,1,18,37,25,old,old,hit,801
1,25,female,native,other,2,1,18,38,25,new,new,cr,638
1,25,female,native,other,2,1,18,39,25,new,new,cr,1041
1,25,female,native,other,2,1,18,40,25,new,new,cr,668
1,25,female,native,other,2,1,18,41,25,new,new,cr,622
1,25,female,native,other,2,1,18,42,25,new,new,cr,849
1,25,female,native,other,2,1,18,43,25,old,old,hit,668
1,25,female,native,other,2,1,18,44,25,old,old,hit,886
1,25,female,native,other,2,1,18,45,25,old,old,hit,944
1,25,female,native,other,2,1,18,46,25,new,new,cr,831
1,25,female,native,other,2,1,18,47,25,new,old,fa,1882
1,25,female,native,other,2,1,18,48,25,new,new,cr,666
1,25,female,native,other,2,1,18,49,25,new,new,cr,797
1,25,female,native,other,2,1,18,50,25,new,new,cr,937
1,25,female,native,other,2,1,18,51,25,new,new,cr,656
1,25,female,native,other,2,1,18,52,25,new,new,cr,659
1,25,female,native,other,2,1,18,53,25,new,new,cr,685
1,25,female,native,other,2,1,18,54,25,old,old,hit,879
1,25,female,native,other,2,1,18,55,25,old,old,hit,873
1,25,female,native,other,2,1,18,56,25,new,new,cr,722
1,25,female,native,other,2,1,18,57,25,new,new,cr,746
1,25,female,native,other,2,1,18,58,25,new,new,cr,761
1,25,female,native,other,2,1,18,59,25,new,new,cr,719
1,25,female,native,other,2,1,18,60,25,old,old,hit,680
1,25,female,native,other,2,1,19,1,10,new,new,cr,1259
1,25,female,native,other,2,1,19,2,10,new,new,cr,780
1,25,female,native,other,2,1,19,3,10,new,new,cr,690
1,25,female,native,other,2,1,19,4,10,new,new,cr,1163
1,25,female,native,other,2,1,19,5,10,new,new,cr,753
1,25,female,native,other,2,1,19,6,10,new,new,cr,552
1,25,female,native,other,2,1,19,7,10,new,new,cr,559
1,25,female,native,other,2,1,19,8,10,new,new,cr,686
1,25,female,native,other,2,1,19,9,10,new,new,cr,568
1,25,female,native,other,2,1,19,10,10,new,new,cr,1174
1,25,female,native,other,2,1,19,11,10,old,old,hit,667
1,25,female,native,other,2,1,19,12,10,new,new,cr,822
1,25,female,native,other,2,1,19,13,10,new,new,cr,586
1,25,female,native,other,2,1,19,14,10,new,new,cr,1056
1,25,female,native,other,2,1,19,15,10,old,old,hit,921
1,25,female,native,other,2,1,19,16,10,new,new,cr,849
1,25,female,native,other,2,1,19,17,10,new,new,cr,747
1,25,female,native,other,2,1,19,18,10,new,new,cr,682
1,25,female,native,other,2,1,19,19,10,new,new,cr,1196
1,25,female,native,other,2,1,19,20,10,new,new,cr,568
1,25,female,native,other,2,1,19,21,10,new,new,cr,551
1,25,female,native,other,2,1,19,22,10,new,new,cr,582
1,25,female,native,other,2,1,19,23,10,new,new,cr,1892
1,25,female,native,other,2,1,19,24,10,new,new,cr,699
1,25,female,native,other,2,1,19,25,10,new,new,cr,772
1,25,female,native,other,2,1,19,26,10,new,new,cr,618
1,25,female,native,other,2,1,19,27,10,old,new,miss,510
1,25,female,native,other,2,1,19,28,10,new,new,cr,559
1,25,female,native,other,2,1,19,29,10,old,old,hit,822
1,25,female,native,other,2,1,19,30,10,new,new,cr,929
1,25,female,native,other,2,1,19,31,10,new,new,cr,697
1,25,female,native,other,2,1,19,32,10,new,new,cr,722
1,25,female,native,other,2,1,19,33,10,new,new,cr,978
1,25,female,native,other,2,1,19,34,10,new,new,cr,1479
1,25,female,native,other,2,1,19,35,10,new,new,cr,664
1,25,female,native,other,2,1,19,36,10,new,new,cr,554
1,25,female,native,other,2,1,19,37,10,new,new,cr,937
1,25,female,native,other,2,1,19,38,10,new,new,cr,640
1,25,female,native,other,2,1,19,39,10,new,new,cr,571
1,25,female,native,other,2,1,19,40,10,old,old,hit,1089
1,25,female,native,other,2,1,19,41,10,new,new,cr,705
1,25,female,native,other,2,1,19,42,10,new,new,cr,609
1,25,female,native,other,2,1,19,43,10,new,new,cr,582
1,25,female,native,other,2,1,19,44,10,new,new,cr,628
1,25,female,native,other,2,1,19,45,10,new,new,cr,1168
1,25,female,native,other,2,1,19,46,10,new,new,cr,669
1,25,female,native,other,2,1,19,47,10,new,new,cr,552
1,25,female,native,other,2,1,19,48,10,new,new,cr,967
1,25,female,native,other,2,1,19,49,10,new,new,cr,813
1,25,female,native,other,2,1,19,50,10,new,new,cr,754
1,25,female,native,other,2,1,19,51,10,old,old,hit,689
1,25,female,native,other,2,1,19,52,10,new,new,cr,722
1,25,female,native,other,2,1,19,53,10,new,new,cr,1986
1,25,female,native,other,2,1,19,54,10,new,new,cr,613
1,25,female,native,other,2,1,19,55,10,new,new,cr,626
1,25,female,native,other,2,1,19,56,10,new,new,cr,766
1,25,female,native,other,2,1,19,57,10,new,new,cr,676
1,25,female,native,other,2,1,19,58,10,new,new,cr,638
1,25,female,native,other,2,1,19,59,10,new,new,cr,673
1,25,female,native,other,2,1,19,60,10,new,new,cr,619
1,25,female,native,other,2,1,20,1,35,new,new,cr,1300
1,25,female,native,other,2,1,20,2,35,new,new,cr,884
1,25,female,native,other,2,1,20,3,35,new,new,cr,893
1,25,female,native,other,2,1,20,4,35,new,new,cr,1454
1,25,female,native,other,2,1,20,5,35,new,new,cr,976
1,25,female,native,other,2,1,20,6,35,new,new,cr,525
1,25,female,native,other,2,1,20,7,35,old,new,miss,565
1,25,female,native,other,2,1,20,8,35,new,new,cr,1116
1,25,female,native,other,2,1,20,9,35,old,old,hit,731
1,25,female,native,other,2,1,20,10,35,new,new,cr,691
1,25,female,native,other,2,1,20,11,35,old,old,hit,708
1,25,female,native,other,2,1,20,12,35,old,old,hit,1724
1,25,female,native,other,2,1,20,13,35,old,old,hit,826
1,25,female,native,other,2,1,20,14,35,new,new,cr,766
1,25,female,native,other,2,1,20,15,35,old,old,hit,756
1,25,female,native,other,2,1,20,16,35,new,new,cr,603
1,25,female,native,other,2,1,20,17,35,new,new,cr,608
1,25,female,native,other,2,1,20,18,35,new,new,cr,564
1,25,female,native,other,2,1,20,19,35,new,new,cr,571
1,25,female,native,other,2,1,20,20,35,new,new,cr,481
1,25,female,native,other,2,1,20,21,35,new,new,cr,931
1,25,female,native,other,2,1,20,22,35,new,new,cr,819
1,25,female,native,other,2,1,20,23,35,new,new,cr,631
1,25,female,native,other,2,1,20,24,35,old,new,miss,547
1,25,female,native,other,2,1,20,25,35,old,old,hit,978
1,25,female,native,other,2,1,20,26,35,new,new,cr,807
1,25,female,native,other,2,1,20,27,35,old,new,miss,1012
1,25,female,native,other,2,1,20,28,35,new,new,cr,752
1,25,female,native,other,2,1,20,29,35,new,new,cr,687
1,25,female,native,other,2,1,20,30,35,old,old,hit,881
1,25,female,native,other,2,1,20,31,35,new,new,cr,1834
1,25,female,native,other,2,1,20,32,35,new,new,cr,747
1,25,female,native,other,2,1,20,33,35,old,old,hit,746
1,25,female,native,other,2,1,20,34,35,old,old,hit,729
1,25,female,native,other,2,1,20,35,35,new,old,fa,1305
1,25,female,native,other,2,1,20,36,35,old,old,hit,1120
1,25,female,native,other,2,1,20,37,35,old,old,hit,664
1,25,female,native,other,2,1,20,38,35,old,old,hit,715
1,25,female,native,other,2,1,20,39,35,new,old,fa,891
1,25,female,native,other,2,1,20,40,35,old,old,hit,628
1,25,female,native,other,2,1,20,41,35,new,new,cr,872
1,25,female,native,other,2,1,20,42,35,new,new,cr,673
1,25,female,native,other,2,1,20,43,35,new,new,cr,851
1,25,female,native,other,2,1,20,44,35,new,new,cr,750
1,25,female,native,other,2,1,20,45,35,old,old,hit,757
1,25,female,native,other,2,1,20,46,35,new,old,fa,2107
1,25,female,native,other,2,1,20,47,35,new,new,cr,626
1,25,female,native,other,2,1,20,48,35,new,new,cr,661
1,25,female,native,other,2,1,20,49,35,new,new,cr,736
1,25,female,native,other,2,1,20,50,35,new,new,cr,792
1,25,female,native,other,2,1,20,51,35,new,new,cr,669
1,25,female,native,other,2,1,20,52,35,old,old,hit,1143
1,25,female,native,other,2,1,20,53,35,new,new,cr,958
1,25,female,native,other,2,1,20,54,35,old,old,hit,779
1,25,female,native,other,2,1,20,55,35,old,old,hit,1424
1,25,female,native,other,2,1,20,56,35,new,new,cr,603
1,25,female,native,other,2,1,20,57,35,new,new,cr,1528
1,25,female,native,other,2,1,20,58,35,new,new,cr,647
1,25,female,native,other,2,1,20,59,35,old,old,hit,834
1,25,female,native,other,2,1,20,60,35,new,new,cr,669
1,25,female,native,other,2,1,21,1,90,old,old,hit,955
1,25,female,native,other,2,1,21,2,90,old,old,hit,633
1,25,female,native,other,2,1,21,3,90,old,new,miss,813
1,25,female,native,other,2,1,21,4,90,new,new,cr,746
1,25,female,native,other,2,1,21,5,90,old,old,hit,600
1,25,female,native,other,2,1,21,6,90,old,old,hit,837
1,25,female,native,other,2,1,21,7,90,old,old,hit,728
1,25,female,native,other,2,1,21,8,90,old,old,hit,679
1,25,female,native,other,2,1,21,9,90,old,old,hit,641
1,25,female,native,other,2,1,21,10,90,old,old,hit,540
1,25,female,native,other,2,1,21,11,90,old,old,hit,572
1,25,female,native,other,2,1,21,12,90,old,old,hit,594
1,25,female,native,other,2,1,21,13,90,old,old,hit,807
1,25,female,native,other,2,1,21,14,90,old,old,hit,539
1,25,female,native,other,2,1,21,15,90,old,old,hit,603
1,25,female,native,other,2,1,21,16,90,old,old,hit,656
1,25,female,native,other,2,1,21,17,90,old,old,hit,691
1,25,female,native,other,2,1,21,18,90,old,old,hit,476
1,25,female,native,other,2,1,21,19,90,old,old,hit,766
1,25,female,native,other,2,1,21,20,90,old,old,hit,596
1,25,female,native,other,2,1,21,21,90,old,old,hit,593
1,25,female,native,other,2,1,21,22,90,old,old,hit,743
1,25,female,native,other,2,1,21,23,90,old,old,hit,982
1,25,female,native,other,2,1,21,24,90,old,old,hit,803
1,25,female,native,other,2,1,21,25,90,old,old,hit,880
1,25,female,native,other,2,1,21,26,90,old,old,hit,610
1,25,female,native,other,2,1,21,27,90,old,old,hit,590
1,25,female,native,other,2,1,21,28,90,old,old,hit,562
1,25,female,native,other,2,1,21,29,90,old,old,hit,713
1,25,female,native,other,2,1,21,30,90,old,old,hit,514
1,25,female,native,other,2,1,21,31,90,old,old,hit,562
1,25,female,native,other,2,1,21,32,90,old,old,hit,561
1,25,female,native,other,2,1,21,33,90,old,old,hit,624
1,25,female,native,other,2,1,21,34,90,new,new,cr,700
1,25,female,native,other,2,1,21,35,90,old,old,hit,621
1,25,female,native,other,2,1,21,36,90,old,old,hit,609
1,25,female,native,other,2,1,21,37,90,old,old,hit,733
1,25,female,native,other,2,1,21,38,90,new,new,cr,669
1,25,female,native,other,2,1,21,39,90,old,old,hit,815
1,25,female,native,other,2,1,21,40,90,new,old,fa,676
1,25,female,native,other,2,1,21,41,90,old,old,hit,733
1,25,female,native,other,2,1,21,42,90,old,old,hit,597
1,25,female,native,other,2,1,21,43,90,old,old,hit,1090
1,25,female,native,other,2,1,21,44,90,old,old,hit,595
1,25,female,native,other,2,1,21,45,90,old,old,hit,704
1,25,female,native,other,2,1,21,46,90,old,old,hit,945
1,25,female,native,other,2,1,21,47,90,old,old,hit,951
1,25,female,native,other,2,1,21,48,90,old,old,hit,630
1,25,female,native,other,2,1,21,49,90,old,old,hit,610
1,25,female,native,other,2,1,21,50,90,old,old,hit,815
1,25,female,native,other,2,1,21,51,90,old,old,hit,835
1,25,female,native,other,2,1,21,52,90,old,old,hit,2181
1,25,female,native,other,2,1,21,53,90,old,new,miss,873
1,25,female,native,other,2,1,21,54,90,new,new,cr,746
1,25,female,native,other,2,1,21,55,90,new,new,cr,1041
1,25,female,native,other,2,1,21,56,90,old,old,hit,740
1,25,female,native,other,2,1,21,57,90,old,old,hit,763
1,25,female,native,other,2,1,21,58,90,old,old,hit,609
1,25,female,native,other,2,1,21,59,90,old,old,hit,670
1,25,female,native,other,2,1,21,60,90,old,old,hit,984
1,25,female,native,other,2,2,22,1,75,new,new,cr,1577
1,25,female,native,other,2,2,22,2,75,old,old,hit,749
1,25,female,native,other,2,2,22,3,75,old,old,hit,556
1,25,female,native,other,2,2,22,4,75,old,old,hit,1322
1,25,female,native,other,2,2,22,5,75,old,old,hit,584
1,25,female,native,other,2,2,22,6,75,old,old,hit,638
1,25,female,native,other,2,2,22,7,75,new,new,cr,650
1,25,female,native,other,2,2,22,8,75,old,old,hit,741
1,25,female,native,other,2,2,22,9,75,old,old,hit,732
1,25,female,native,other,2,2,22,10,75,old,old,hit,564
1,25,female,native,other,2,2,22,11,75,new,old,fa,930
1,25,female,native,other,2,2,22,12,75,old,old,hit,658
1,25,female,native,other,2,2,22,13,75,old,old,hit,660
1,25,female,native,other,2,2,22,14,75,old,old,hit,607
1,25,female,native,other,2,2,22,15,75,old,old,hit,907
1,25,female,native,other,2,2,22,16,75,old,old,hit,1099
1,25,female,native,other,2,2,22,17,75,new,new,cr,852
1,25,female,native,other,2,2,22,18,75,old,old,hit,551
1,25,female,native,other,2,2,22,19,75,old,old,hit,774
1,25,female,native,other,2,2,22,20,75,old,old,hit,788
1,25,female,native,other,2,2,22,21,75,old,old,hit,809
1,25,female,native,other,2,2,22,22,75,old,old,hit,917
1,25,female,native,other,2,2,22,23,75,new,new,cr,901
1,25,female,native,other,2,2,22,24,75,old,old,hit,582
1,25,female,native,other,2,2,22,25,75,new,new,cr,1004
1,25,female,native,other,2,2,22,26,75,old,old,hit,881
1,25,female,native,other,2,2,22,27,75,old,old,hit,722
1,25,female,native,other,2,2,22,28,75,old,old,hit,617
1,25,female,native,other,2,2,22,29,75,new,new,cr,853
1,25,female,native,other,2,2,22,30,75,old,old,hit,688
1,25,female,native,other,2,2,22,31,75,new,new,cr,577
1,25,female,native,other,2,2,22,32,75,old,old,hit,615
1,25,female,native,other,2,2,22,33,75,old,old,hit,692
1,25,female,native,other,2,2,22,34,75,old,old,hit,669
1,25,female,native,other,2,2,22,35,75,old,old,hit,808
1,25,female,native,other,2,2,22,36,75,old,old,hit,540
1,25,female,native,other,2,2,22,37,75,old,old,hit,1267
1,25,female,native,other,2,2,22,38,75,new,new,cr,829
1,25,female,native,other,2,2,22,39,75,new,new,cr,1312
1,25,female,native,other,2,2,22,40,75,new,new,cr,712
1,25,female,native,other,2,2,22,41,75,old,old,hit,1056
1,25,female,native,other,2,2,22,42,75,old,old,hit,642
1,25,female,native,other,2,2,22,43,75,old,new,miss,1493
1,25,female,native,other,2,2,22,44,75,old,old,hit,965
1,25,female,native,other,2,2,22,45,75,new,new,cr,651
1,25,female,native,other,2,2,22,46,75,old,old,hit,774
1,25,female,native,other,2,2,22,47,75,old,old,hit,580
1,25,female,native,other,2,2,22,48,75,old,old,hit,570
1,25,female,native,other,2,2,22,49,75,old,old,hit,697
1,25,female,native,other,2,2,22,50,75,old,old,hit,601
1,25,female,native,other,2,2,22,51,75,old,old,hit,950
1,25,female,native,other,2,2,22,52,75,old,old,hit,837
1,25,female,native,other,2,2,22,53,75,new,new,cr,680
1,25,female,native,other,2,2,22,54,75,old,old,hit,730
1,25,female,native,other,2,2,22,55,75,old,old,hit,706
1,25,female,native,other,2,2,22,56,75,old,old,hit,618
1,25,female,native,other,2,2,22,57,75,new,new,cr,815
1,25,female,native,other,2,2,22,58,75,old,old,hit,1051
1,25,female,native,other,2,2,22,59,75,old,old,hit,646
1,25,female,native,other,2,2,22,60,75,new,new,cr,689
1,25,female,native,other,2,2,23,1,10,new,new,cr,837
1,25,female,native,other,2,2,23,2,10,new,new,cr,624
1,25,female,native,other,2,2,23,3,10,new,new,cr,804
1,25,female,native,other,2,2,23,4,10,new,new,cr,561
1,25,female,native,other,2,2,23,5,10,new,new,cr,488
1,25,female,native,other,2,2,23,6,10,new,new,cr,648
1,25,female,native,other,2,2,23,7,10,new,new,cr,539
1,25,female,native,other,2,2,23,8,10,new,new,cr,507
1,25,female,native,other,2,2,23,9,10,new,new,cr,636
1,25,female,native,other,2,2,23,10,10,new,new,cr,647
1,25,female,native,other,2,2,23,11,10,new,new,cr,611
1,25,female,native,other,2,2,23,12,10,new,new,cr,527
1,25,female,native,other,2,2,23,13,10,new,new,cr,543
1,25,female,native,other,2,2,23,14,10,new,new,cr,679
1,25,female,native,other,2,2,23,15,10,new,new,cr,1360
1,25,female,native,other,2,2,23,16,10,new,new,cr,494
1,25,female,native,other,2,2,23,17,10,old,new,miss,567
1,25,female,native,other,2,2,23,18,10,new,new,cr,1150
1,25,female,native,other,2,2,23,19,10,new,new,cr,524
1,25,female,native,other,2,2,23,20,10,new,new,cr,572
1,25,female,native,other,2,2,23,21,10,new,new,cr,602
1,25,female,native,other,2,2,23,22,10,new,new,cr,640
1,25,female,native,other,2,2,23,23,10,new,new,cr,611
1,25,female,native,other,2,2,23,24,10,new,new,cr,631
1,25,female,native,other,2,2,23,25,10,old,new,miss,691
1,25,female,native,other,2,2,23,26,10,old,old,hit,1405
1,25,female,native,other,2,2,23,27,10,new,new,cr,657
1,25,female,native,other,2,2,23,28,10,new,new,cr,995
1,25,female,native,other,2,2,23,29,10,new,new,cr,871
1,25,female,native,other,2,2,23,30,10,new,new,cr,720
1,25,female,native,other,2,2,23,31,10,new,new,cr,656
1,25,female,native,other,2,2,23,32,10,new,new,cr,730
1,25,female,native,other,2,2,23,33,10,new,new,cr,586
1,25,female,native,other,2,2,23,34,10,new,new,cr,728
1,25,female,native,other,2,2,23,35,10,new,new,cr,776
1,25,female,native,other,2,2,23,36,10,new,new,cr,774
1,25,female,native,other,2,2,23,37,10,new,new,cr,643
1,25,female,native,other,2,2,23,38,10,old,old,hit,886
1,25,female,native,other,2,2,23,39,10,new,new,cr,896
1,25,female,native,other,2,2,23,40,10,new,new,cr,689
1,25,female,native,other,2,2,23,41,10,new,old,fa,954
1,25,female,native,other,2,2,23,42,10,new,new,cr,689
1,25,female,native,other,2,2,23,43,10,new,new,cr,890
1,25,female,native,other,2,2,23,44,10,new,new,cr,730
1,25,female,native,other,2,2,23,45,10,new,new,cr,762
1,25,female,native,other,2,2,23,46,10,new,new,cr,729
1,25,female,native,other,2,2,23,47,10,new,new,cr,632
1,25,female,native,other,2,2,23,48,10,new,new,cr,572
1,25,female,native,other,2,2,23,49,10,new,new,cr,530
1,25,female,native,other,2,2,23,50,10,old,old,hit,1162
1,25,female,native,other,2,2,23,51,10,new,new,cr,520
1,25,female,native,other,2,2,23,52,10,new,new,cr,553
1,25,female,native,other,2,2,23,53,10,old,old,hit,792
1,25,female,native,other,2,2,23,54,10,new,new,cr,652
1,25,female,native,other,2,2,23,55,10,new,new,cr,679
1,25,female,native,other,2,2,23,56,10,new,new,cr,785
1,25,female,native,other,2,2,23,57,10,new,new,cr,703
1,25,female,native,other,2,2,23,58,10,new,new,cr,920
1,25,female,native,other,2,2,23,59,10,new,new,cr,704
1,25,female,native,other,2,2,23,60,10,new,new,cr,568
1,25,female,native,other,2,2,24,1,50,old,old,hit,1282
1,25,female,native,other,2,2,24,2,50,new,new,cr,754
1,25,female,native,other,2,2,24,3,50,new,new,cr,721
1,25,female,native,other,2,2,24,4,50,old,old,hit,937
1,25,female,native,other,2,2,24,5,50,new,new,cr,745
1,25,female,native,other,2,2,24,6,50,old,old,hit,696
1,25,female,native,other,2,2,24,7,50,old,old,hit,600
1,25,female,native,other,2,2,24,8,50,new,new,cr,589
1,25,female,native,other,2,2,24,9,50,old,old,hit,626
1,25,female,native,other,2,2,24,10,50,old,old,hit,582
1,25,female,native,other,2,2,24,11,50,old,old,hit,604
1,25,female,native,other,2,2,24,12,50,old,old,hit,689
1,25,female,native,other,2,2,24,13,50,old,old,hit,762
1,25,female,native,other,2,2,24,14,50,old,old,hit,936
1,25,female,native,other,2,2,24,15,50,old,old,hit,712
1,25,female,native,other,2,2,24,16,50,new,new,cr,1576
1,25,female,native,other,2,2,24,17,50,new,new,cr,661
1,25,female,native,other,2,2,24,18,50,old,old,hit,839
1,25,female,native,other,2,2,24,19,50,old,old,hit,970
1,25,female,native,other,2,2,24,20,50,new,new,cr,632
1,25,female,native,other,2,2,24,21,50,old,old,hit,724
1,25,female,native,other,2,2,24,22,50,new,new,cr,1708
1,25,female,native,other,2,2,24,23,50,old,old,hit,586
1,25,female,native,other,2,2,24,24,50,old,old,hit,1168
1,25,female,native,other,2,2,24,25,50,new,new,cr,654
1,25,female,native,other,2,2,24,26,50,old,new,miss,937
1,25,female,native,other,2,2,24,27,50,new,new,cr,1192
1,25,female,native,other,2,2,24,28,50,new,new,cr,724
1,25,female,native,other,2,2,24,29,50,old,old,hit,588
1,25,female,native,other,2,2,24,30,50,new,new,cr,1088
1,25,female,native,other,2,2,24,31,50,new,new,cr,1793
1,25,female,native,other,2,2,24,32,50,new,new,cr,716
1,25,female,native,other,2,2,24,33,50,new,old,fa,981
1,25,female,native,other,2,2,24,34,50,new,new,cr,906
1,25,female,native,other,2,2,24,35,50,old,new,miss,1194
1,25,female,native,other,2,2,24,36,50,new,new,cr,734
1,25,female,native,other,2,2,24,37,50,new,new,cr,686
1,25,female,native,other,2,2,24,38,50,new,new,cr,816
1,25,female,native,other,2,2,24,39,50,old,old,hit,804
1,25,female,native,other,2,2,24,40,50,new,new,cr,920
1,25,female,native,other,2,2,24,41,50,new,new,cr,929
1,25,female,native,other,2,2,24,42,50,old,old,hit,592
1,25,female,native,other,2,2,24,43,50,old,old,hit,773
1,25,female,native,other,2,2,24,44,50,old,old,hit,1027
1,25,female,native,other,2,2,24,45,50,new,new,cr,1230
1,25,female,native,other,2,2,24,46,50,old,old,hit,1193
1,25,female,native,other,2,2,24,47,50,new,new,cr,701
1,25,female,native,other,2,2,24,48,50,new,new,cr,671
1,25,female,native,other,2,2,24,49,50,old,old,hit,793
1,25,female,native,other,2,2,24,50,50,new,new,cr,782
1,25,female,native,other,2,2,24,51,50,old,old,hit,748
1,25,female,native,other,2,2,24,52,50,old,old,hit,866
1,25,female,native,other,2,2,24,53,50,new,new,cr,692
1,25,female,native,other,2,2,24,54,50,old,old,hit,1013
1,25,female,native,other,2,2,24,55,50,old,old,hit,785
1,25,female,native,other,2,2,24,56,50,new,new,cr,767
1,25,female,native,other,2,2,24,57,50,new,new,cr,573
1,25,female,native,other,2,2,24,58,50,new,new,cr,635
1,25,female,native,other,2,2,24,59,50,old,old,hit,999
1,25,female,native,other,2,2,24,60,50,new,new,cr,620
1,25,female,native,other,2,2,25,1,90,old,old,hit,1311
1,25,female,native,other,2,2,25,2,90,old,old,hit,671
1,25,female,native,other,2,2,25,3,90,old,old,hit,769
1,25,female,native,other,2,2,25,4,90,old,old,hit,679
1,25,female,native,other,2,2,25,5,90,old,old,hit,929
1,25,female,native,other,2,2,25,6,90,old,old,hit,2464
1,25,female,native,other,2,2,25,7,90,old,old,hit,1304
1,25,female,native,other,2,2,25,8,90,old,old,hit,824
1,25,female,native,other,2,2,25,9,90,old,old,hit,643
1,25,female,native,other,2,2,25,10,90,new,old,fa,735
1,25,female,native,other,2,2,25,11,90,old,old,hit,662
1,25,female,native,other,2,2,25,12,90,old,old,hit,641
1,25,female,native,other,2,2,25,13,90,old,old,hit,612
1,25,female,native,other,2,2,25,14,90,old,old,hit,697
1,25,female,native,other,2,2,25,15,90,old,old,hit,666
1,25,female,native,other,2,2,25,16,90,old,old,hit,660
1,25,female,native,other,2,2,25,17,90,old,old,hit,671
1,25,female,native,other,2,2,25,18,90,old,old,hit,689
1,25,female,native,other,2,2,25,19,90,old,old,hit,690
1,25,female,native,other,2,2,25,20,90,old,old,hit,971
1,25,female,native,other,2,2,25,21,90,old,old,hit,673
1,25,female,native,other,2,2,25,22,90,old,old,hit,610
1,25,female,native,other,2,2,25,23,90,old,old,hit,734
1,25,female,native,other,2,2,25,24,90,old,old,hit,654
1,25,female,native,other,2,2,25,25,90,old,old,hit,1257
1,25,female,native,other,2,2,25,26,90,old,old,hit,594
1,25,female,native,other,2,2,25,27,90,old,old,hit,919
1,25,female,native,other,2,2,25,28,90,new,new,cr,824
1,25,female,native,other,2,2,25,29,90,old,old,hit,691
1,25,female,native,other,2,2,25,30,90,old,old,hit,852
1,25,female,native,other,2,2,25,31,90,old,old,hit,943
1,25,female,native,other,2,2,25,32,90,new,new,cr,686
1,25,female,native,other,2,2,25,33,90,old,old,hit,648
1,25,female,native,other,2,2,25,34,90,old,old,hit,715
1,25,female,native,other,2,2,25,35,90,old,new,miss,1003
1,25,female,native,other,2,2,25,36,90,old,old,hit,696
1,25,female,native,other,2,2,25,37,90,new,new,cr,881
1,25,female,native,other,2,2,25,38,90,old,old,hit,683
1,25,female,native,other,2,2,25,39,90,new,new,cr,844
1,25,female,native,other,2,2,25,40,90,old,old,hit,719
1,25,female,native,other,2,2,25,41,90,old,old,hit,976
1,25,female,native,other,2,2,25,42,90,old,old,hit,1645
1,25,female,native,other,2,2,25,43,90,old,old,hit,623
1,25,female,native,other,2,2,25,44,90,new,new,cr,1314
1,25,female,native,other,2,2,25,45,90,old,old,hit,713
1,25,female,native,other,2,2,25,46,90,old,old,hit,1177
1,25,female,native,other,2,2,25,47,90,old,old,hit,734
1,25,female,native,other,2,2,25,48,90,old,old,hit,998
1,25,female,native,other,2,2,25,49,90,old,old,hit,1403
1,25,female,native,other,2,2,25,50,90,old,old,hit,671
1,25,female,native,other,2,2,25,51,90,old,old,hit,601
1,25,female,native,other,2,2,25,52,90,old,old,hit,766
1,25,female,native,other,2,2,25,53,90,old,old,hit,972
1,25,female,native,other,2,2,25,54,90,old,old,hit,778
1,25,female,native,other,2,2,25,55,90,old,old,hit,711
1,25,female,native,other,2,2,25,56,90,old,old,hit,608
1,25,female,native,other,2,2,25,57,90,old,old,hit,572
1,25,female,native,other,2,2,25,58,90,old,old,hit,538
1,25,female,native,other,2,2,25,59,90,old,old,hit,970
1,25,female,native,other,2,2,25,60,90,old,old,hit,696
1,25,female,native,other,2,2,26,1,65,old,old,hit,1264
1,25,female,native,other,2,2,26,2,65,old,new,miss,1138
1,25,female,native,other,2,2,26,3,65,old,old,hit,848
1,25,female,native,other,2,2,26,4,65,old,new,miss,795
1,25,female,native,other,2,2,26,5,65,old,new,miss,808
1,25,female,native,other,2,2,26,6,65,old,new,miss,1268
1,25,female,native,other,2,2,26,7,65,new,new,cr,886
1,25,female,native,other,2,2,26,8,65,new,new,cr,848
1,25,female,native,other,2,2,26,9,65,new,new,cr,2226
1,25,female,native,other,2,2,26,10,65,old,old,hit,852
1,25,female,native,other,2,2,26,11,65,new,new,cr,1087
1,25,female,native,other,2,2,26,12,65,old,old,hit,800
1,25,female,native,other,2,2,26,13,65,new,old,fa,1205
1,25,female,native,other,2,2,26,14,65,old,old,hit,673
1,25,female,native,other,2,2,26,15,65,new,new,cr,714
1,25,female,native,other,2,2,26,16,65,old,old,hit,634
1,25,female,native,other,2,2,26,17,65,old,old,hit,726
1,25,female,native,other,2,2,26,18,65,old,old,hit,1358
1,25,female,native,other,2,2,26,19,65,old,old,hit,659
1,25,female,native,other,2,2,26,20,65,old,old,hit,630
1,25,female,native,other,2,2,26,21,65,old,old,hit,690
1,25,female,native,other,2,2,26,22,65,old,old,hit,827
1,25,female,native,other,2,2,26,23,65,new,new,cr,910
1,25,female,native,other,2,2,26,24,65,old,old,hit,631
1,25,female,native,other,2,2,26,25,65,new,old,fa,922
1,25,female,native,other,2,2,26,26,65,old,old,hit,818
1,25,female,native,other,2,2,26,27,65,new,new,cr,638
1,25,female,native,other,2,2,26,28,65,old,old,hit,633
1,25,female,native,other,2,2,26,29,65,old,old,hit,1117
1,25,female,native,other,2,2,26,30,65,old,new,miss,1405
1,25,female,native,other,2,2,26,31,65,old,old,hit,665
1,25,female,native,other,2,2,26,32,65,new,new,cr,692
1,25,female,native,other,2,2,26,33,65,new,new,cr,1069
1,25,female,native,other,2,2,26,34,65,new,new,cr,1255
1,25,female,native,other,2,2,26,35,65,old,old,hit,625
1,25,female,native,other,2,2,26,36,65,old,old,hit,853
1,25,female,native,other,2,2,26,37,65,new,new,cr,640
1,25,female,native,other,2,2,26,38,65,old,old,hit,578
1,25,female,native,other,2,2,26,39,65,old,old,hit,760
1,25,female,native,other,2,2,26,40,65,new,new,cr,1038
1,25,female,native,other,2,2,26,41,65,old,old,hit,1513
1,25,female,native,other,2,2,26,42,65,old,old,hit,656
1,25,female,native,other,2,2,26,43,65,new,new,cr,938
1,25,female,native,other,2,2,26,44,65,old,old,hit,817
1,25,female,native,other,2,2,26,45,65,new,old,fa,789
1,25,female,native,other,2,2,26,46,65,old,new,miss,922
1,25,female,native,other,2,2,26,47,65,old,old,hit,802
1,25,female,native,other,2,2,26,48,65,new,old,fa,1023
1,25,female,native,other,2,2,26,49,65,new,new,cr,994
1,25,female,native,other,2,2,26,50,65,old,old,hit,647
1,25,female,native,other,2,2,26,51,65,old,new,miss,802
1,25,female,native,other,2,2,26,52,65,old,new,miss,1503
1,25,female,native,other,2,2,26,53,65,old,old,hit,1183
1,25,female,native,other,2,2,26,54,65,new,new,cr,1044
1,25,female,native,other,2,2,26,55,65,old,old,hit,630
1,25,female,native,other,2,2,26,56,65,new,new,cr,770
1,25,female,native,other,2,2,26,57,65,old,old,hit,648
1,25,female,native,other,2,2,26,58,65,old,old,hit,1652
1,25,female,native,other,2,2,26,59,65,old,old,hit,861
1,25,female,native,other,2,2,26,60,65,new,new,cr,750
1,25,female,native,other,2,2,27,1,10,new,new,cr,922
1,25,female,native,other,2,2,27,2,10,new,new,cr,1929
1,25,female,native,other,2,2,27,3,10,new,old,fa,1015
1,25,female,native,other,2,2,27,4,10,new,new,cr,715
1,25,female,native,other,2,2,27,5,10,new,new,cr,643
1,25,female,native,other,2,2,27,6,10,new,new,cr,759
1,25,female,native,other,2,2,27,7,10,new,new,cr,668
1,25,female,native,other,2,2,27,8,10,new,new,cr,487
1,25,female,native,other,2,2,27,9,10,new,old,fa,976
1,25,female,native,other,2,2,27,10,10,new,new,cr,669
1,25,female,native,other,2,2,27,11,10,new,new,cr,568
1,25,female,native,other,2,2,27,12,10,new,new,cr,742
1,25,female,native,other,2,2,27,13,10,new,new,cr,590
1,25,female,native,other,2,2,27,14,10,new,new,cr,547
1,25,female,native,other,2,2,27,15,10,new,new,cr,594
1,25,female,native,other,2,2,27,16,10,new,old,fa,775
1,25,female,native,other,2,2,27,17,10,new,new,cr,845
1,25,female,native,other,2,2,27,18,10,new,new,cr,736
1,25,female,native,other,2,2,27,19,10,old,old,hit,896
1,25,female,native,other,2,2,27,20,10,new,new,cr,649
1,25,female,native,other,2,2,27,21,10,new,new,cr,708
1,25,female,native,other,2,2,27,22,10,new,new,cr,708
1,25,female,native,other,2,2,27,23,10,new,new,cr,917
1,25,female,native,other,2,2,27,24,10,new,new,cr,517
1,25,female,native,other,2,2,27,25,10,new,new,cr,541
1,25,female,native,other,2,2,27,26,10,new,new,cr,637
1,25,female,native,other,2,2,27,27,10,old,new,miss,881
1,25,female,native,other,2,2,27,28,10,new,new,cr,730
1,25,female,native,other,2,2,27,29,10,old,new,miss,2170
1,25,female,native,other,2,2,27,30,10,new,new,cr,701
1,25,female,native,other,2,2,27,31,10,new,new,cr,838
1,25,female,native,other,2,2,27,32,10,new,new,cr,601
1,25,female,native,other,2,2,27,33,10,new,new,cr,606
1,25,female,native,other,2,2,27,34,10,new,new,cr,643
1,25,female,native,other,2,2,27,35,10,old,new,miss,606
1,25,female,native,other,2,2,27,36,10,new,new,cr,683
1,25,female,native,other,2,2,27,37,10,new,new,cr,733
1,25,female,native,other,2,2,27,38,10,new,new,cr,676
1,25,female,native,other,2,2,27,39,10,new,new,cr,742
1,25,female,native,other,2,2,27,40,10,new,new,cr,1037
1,25,female,native,other,2,2,27,41,10,new,new,cr,720
1,25,female,native,other,2,2,27,42,10,new,new,cr,1105
1,25,female,native,other,2,2,27,43,10,new,new,cr,545
1,25,female,native,other,2,2,27,44,10,new,new,cr,720
1,25,female,native,other,2,2,27,45,10,new,new,cr,1032
1,25,female,native,other,2,2,27,46,10,new,new,cr,612
1,25,female,native,other,2,2,27,47,10,new,new,cr,976
1,25,female,native,other,2,2,27,48,10,new,new,cr,574
1,25,female,native,other,2,2,27,49,10,new,new,cr,932
1,25,female,native,other,2,2,27,50,10,old,new,miss,931
1,25,female,native,other,2,2,27,51,10,new,new,cr,578
1,25,female,native,other,2,2,27,52,10,new,new,cr,552
1,25,female,native,other,2,2,27,53,10,new,new,cr,640
1,25,female,native,other,2,2,27,54,10,new,new,cr,603
1,25,female,native,other,2,2,27,55,10,new,new,cr,583
1,25,female,native,other,2,2,27,56,10,new,new,cr,669
1,25,female,native,other,2,2,27,57,10,new,new,cr,688
1,25,female,native,other,2,2,27,58,10,new,new,cr,817
1,25,female,native,other,2,2,27,59,10,new,new,cr,797
1,25,female,native,other,2,2,27,60,10,old,new,miss,666
1,25,female,native,other,2,3,28,1,25,new,new,cr,1753
1,25,female,native,other,2,3,28,2,25,new,new,cr,614
1,25,female,native,other,2,3,28,3,25,old,old,hit,747
1,25,female,native,other,2,3,28,4,25,new,new,cr,586
1,25,female,native,other,2,3,28,5,25,old,old,hit,672
1,25,female,native,other,2,3,28,6,25,new,new,cr,666
1,25,female,native,other,2,3,28,7,25,old,old,hit,652
1,25,female,native,other,2,3,28,8,25,new,new,cr,720
1,25,female,native,other,2,3,28,9,25,new,new,cr,752
1,25,female,native,other,2,3,28,10,25,new,new,cr,606
1,25,female,native,other,2,3,28,11,25,new,new,cr,635
1,25,female,native,other,2,3,28,12,25,new,new,cr,887
1,25,female,native,other,2,3,28,13,25,new,new,cr,672
1,25,female,native,other,2,3,28,14,25,old,old,hit,730
1,25,female,native,other,2,3,28,15,25,new,new,cr,842
1,25,female,native,other,2,3,28,16,25,new,new,cr,1220
1,25,female,native,other,2,3,28,17,25,new,new,cr,880
1,25,female,native,other,2,3,28,18,25,new,new,cr,578
1,25,female,native,other,2,3,28,19,25,new,new,cr,776
1,25,female,native,other,2,3,28,20,25,new,new,cr,629
1,25,female,native,other,2,3,28,21,25,old,old,hit,601
1,25,female,native,other,2,3,28,22,25,new,new,cr,878
1,25,female,native,other,2,3,28,23,25,new,new,cr,616
1,25,female,native,other,2,3,28,24,25,new,new,cr,756
1,25,female,native,other,2,3,28,25,25,new,new,cr,763
1,25,female,native,other,2,3,28,26,25,new,new,cr,809
1,25,female,native,other,2,3,28,27,25,old,old,hit,1213
1,25,female,native,other,2,3,28,28,25,new,new,cr,649
1,25,female,native,other,2,3,28,29,25,old,old,hit,956
1,25,female,native,other,2,3,28,30,25,old,new,miss,730
1,25,female,native,other,2,3,28,31,25,new,new,cr,826
1,25,female,native,other,2,3,28,32,25,new,new,cr,702
1,25,female,native,other,2,3,28,33,25,new,new,cr,630
1,25,female,native,other,2,3,28,34,25,new,new,cr,754
1,25,female,native,other,2,3,28,35,25,old,new,miss,1152
1,25,female,native,other,2,3,28,36,25,new,new,cr,758
1,25,female,native,other,2,3,28,37,25,new,new,cr,605
1,25,female,native,other,2,3,28,38,25,new,new,cr,1321
1,25,female,native,other,2,3,28,39,25,new,new,cr,672
1,25,female,native,other,2,3,28,40,25,new,new,cr,1026
1,25,female,native,other,2,3,28,41,25,old,new,miss,1613
1,25,female,native,other,2,3,28,42,25,new,new,cr,656
1,25,female,native,other,2,3,28,43,25,old,old,hit,835
1,25,female,native,other,2,3,28,44,25,new,new,cr,1046
1,25,female,native,other,2,3,28,45,25,new,new,cr,601
1,25,female,native,other,2,3,28,46,25,old,old,hit,726
1,25,female,native,other,2,3,28,47,25,new,new,cr,782
1,25,female,native,other,2,3,28,48,25,new,new,cr,1507
1,25,female,native,other,2,3,28,49,25,new,new,cr,1035
1,25,female,native,other,2,3,28,50,25,old,old,hit,1150
1,25,female,native,other,2,3,28,51,25,old,old,hit,1132
1,25,female,native,other,2,3,28,52,25,new,new,cr,803
1,25,female,native,other,2,3,28,53,25,new,new,cr,664
1,25,female,native,other,2,3,28,54,25,new,new,cr,611
1,25,female,native,other,2,3,28,55,25,new,new,cr,670
1,25,female,native,other,2,3,28,56,25,new,new,cr,768
1,25,female,native,other,2,3,28,57,25,new,new,cr,671
1,25,female,native,other,2,3,28,58,25,new,new,cr,720
1,25,female,native,other,2,3,28,59,25,new,new,cr,640
1,25,female,native,other,2,3,28,60,25,old,old,hit,731
1,25,female,native,other,2,3,29,1,90,old,old,hit,1049
1,25,female,native,other,2,3,29,2,90,old,old,hit,668
1,25,female,native,other,2,3,29,3,90,old,old,hit,1022
1,25,female,native,other,2,3,29,4,90,old,old,hit,561
1,25,female,native,other,2,3,29,5,90,old,old,hit,576
1,25,female,native,other,2,3,29,6,90,old,old,hit,606
1,25,female,native,other,2,3,29,7,90,new,new,cr,939
1,25,female,native,other,2,3,29,8,90,old,old,hit,744
1,25,female,native,other,2,3,29,9,90,old,old,hit,767
1,25,female,native,other,2,3,29,10,90,old,old,hit,662
1,25,female,native,other,2,3,29,11,90,old,old,hit,936
1,25,female,native,other,2,3,29,12,90,new,new,cr,744
1,25,female,native,other,2,3,29,13,90,old,old,hit,543
1,25,female,native,other,2,3,29,14,90,old,old,hit,806
1,25,female,native,other,2,3,29,15,90,old,old,hit,634
1,25,female,native,other,2,3,29,16,90,old,old,hit,670
1,25,female,native,other,2,3,29,17,90,old,old,hit,656
1,25,female,native,other,2,3,29,18,90,old,old,hit,963
1,25,female,native,other,2,3,29,19,90,old,old,hit,657
1,25,female,native,other,2,3,29,20,90,old,old,hit,1235
1,25,female,native,other,2,3,29,21,90,old,old,hit,686
1,25,female,native,other,2,3,29,22,90,old,old,hit,624
1,25,female,native,other,2,3,29,23,90,old,old,hit,644
1,25,female,native,other,2,3,29,24,90,old,old,hit,1127
1,25,female,native,other,2,3,29,25,90,old,old,hit,670
1,25,female,native,other,2,3,29,26,90,old,old,hit,569
1,25,female,native,other,2,3,29,27,90,old,old,hit,551
1,25,female,native,other,2,3,29,28,90,old,old,hit,655
1,25,female,native,other,2,3,29,29,90,old,old,hit,617
1,25,female,native,other,2,3,29,30,90,new,new,cr,694
1,25,female,native,other,2,3,29,31,90,old,old,hit,1398
1,25,female,native,other,2,3,29,32,90,new,new,cr,1042
1,25,female,native,other,2,3,29,33,90,old,old,hit,644
1,25,female,native,other,2,3,29,34,90,old,old,hit,584
1,25,female,native,other,2,3,29,35,90,old,old,hit,725
1,25,female,native,other,2,3,29,36,90,old,old,hit,909
1,25,female,native,other,2,3,29,37,90,old,old,hit,645
1,25,female,native,other,2,3,29,38,90,old,old,hit,553
1,25,female,native,other,2,3,29,39,90,old,old,hit,880
1,25,female,native,other,2,3,29,40,90,old,old,hit,617
1,25,female,native,other,2,3,29,41,90,old,old,hit,630
1,25,female,native,other,2,3,29,42,90,old,old,hit,618
1,25,female,native,other,2,3,29,43,90,old,old,hit,678
1,25,female,native,other,2,3,29,44,90,old,old,hit,752
1,25,female,native,other,2,3,29,45,90,old,old,hit,711
1,25,female,native,other,2,3,29,46,90,old,old,hit,576
1,25,female,native,other,2,3,29,47,90,old,old,hit,1454
1,25,female,native,other,2,3,29,48,90,old,old,hit,920
1,25,female,native,other,2,3,29,49,90,old,old,hit,576
1,25,female,native,other,2,3,29,50,90,old,old,hit,694
1,25,female,native,other,2,3,29,51,90,old,old,hit,615
1,25,female,native,other,2,3,29,52,90,new,new,cr,987
1,25,female,native,other,2,3,29,53,90,old,old,hit,641
1,25,female,native,other,2,3,29,54,90,old,old,hit,571
1,25,female,native,other,2,3,29,55,90,old,old,hit,625
1,25,female,native,other,2,3,29,56,90,old,old,hit,541
1,25,female,native,other,2,3,29,57,90,old,old,hit,1228
1,25,female,native,other,2,3,29,58,90,new,new,cr,879
1,25,female,native,other,2,3,29,59,90,old,old,hit,745
1,25,female,native,other,2,3,29,60,90,old,old,hit,944
1,25,female,native,other,2,3,30,1,35,new,new,cr,855
1,25,female,native,other,2,3,30,2,35,new,new,cr,2009
1,25,female,native,other,2,3,30,3,35,new,new,cr,699
1,25,female,native,other,2,3,30,4,35,old,old,hit,716
1,25,female,native,other,2,3,30,5,35,new,new,cr,685
1,25,female,native,other,2,3,30,6,35,old,old,hit,639
1,25,female,native,other,2,3,30,7,35,new,new,cr,666
1,25,female,native,other,2,3,30,8,35,new,new,cr,812
1,25,female,native,other,2,3,30,9,35,old,old,hit,832
1,25,female,native,other,2,3,30,10,35,new,new,cr,979
1,25,female,native,other,2,3,30,11,35,new,new,cr,625
1,25,female,native,other,2,3,30,12,35,new,new,cr,1044
1,25,female,native,other,2,3,30,13,35,new,new,cr,639
1,25,female,native,other,2,3,30,14,35,old,old,hit,722
1,25,female,native,other,2,3,30,15,35,new,new,cr,810
1,25,female,native,other,2,3,30,16,35,new,new,cr,598
1,25,female,native,other,2,3,30,17,35,new,new,cr,659
1,25,female,native,other,2,3,30,18,35,old,old,hit,718
1,25,female,native,other,2,3,30,19,35,old,old,hit,710
1,25,female,native,other,2,3,30,20,35,old,old,hit,751
1,25,female,native,other,2,3,30,21,35,new,new,cr,830
1,25,female,native,other,2,3,30,22,35,old,old,hit,649
1,25,female,native,other,2,3,30,23,35,new,new,cr,1149
1,25,female,native,other,2,3,30,24,35,old,old,hit,1227
1,25,female,native,other,2,3,30,25,35,old,old,hit,1022
1,25,female,native,other,2,3,30,26,35,new,new,cr,657
1,25,female,native,other,2,3,30,27,35,new,new,cr,628
1,25,female,native,other,2,3,30,28,35,new,new,cr,744
1,25,female,native,other,2,3,30,29,35,new,new,cr,535
1,25,female,native,other,2,3,30,30,35,old,old,hit,895
1,25,female,native,other,2,3,30,31,35,new,new,cr,616
1,25,female,native,other,2,3,30,32,35,new,new,cr,651
1,25,female,native,other,2,3,30,33,35,new,new,cr,646
1,25,female,native,other,2,3,30,34,35,new,new,cr,666
1,25,female,native,other,2,3,30,35,35,new,new,cr,596
1,25,female,native,other,2,3,30,36,35,new,new,cr,585
1,25,female,native,other,2,3,30,37,35,new,new,cr,671
1,25,female,native,other,2,3,30,38,35,old,old,hit,889
1,25,female,native,other,2,3,30,39,35,new,new,cr,866
1,25,female,native,other,2,3,30,40,35,new,new,cr,860
1,25,female,native,other,2,3,30,41,35,new,new,cr,830
1,25,female,native,other,2,3,30,42,35,new,new,cr,714
1,25,female,native,other,2,3,30,43,35,new,new,cr,682
1,25,female,native,other,2,3,30,44,35,new,new,cr,500
1,25,female,native,other,2,3,30,45,35,new,new,cr,566
1,25,female,native,other,2,3,30,46,35,old,old,hit,1028
1,25,female,native,other,2,3,30,47,35,old,old,hit,808
1,25,female,native,other,2,3,30,48,35,old,new,miss,1404
1,25,female,native,other,2,3,30,49,35,old,old,hit,952
1,25,female,native,other,2,3,30,50,35,new,new,cr,655
1,25,female,native,other,2,3,30,51,35,new,new,cr,825
1,25,female,native,other,2,3,30,52,35,new,new,cr,653
1,25,female,native,other,2,3,30,53,35,new,new,cr,816
1,25,female,native,other,2,3,30,54,35,new,new,cr,708
1,25,female,native,other,2,3,30,55,35,old,old,hit,748
1,25,female,native,other,2,3,30,56,35,old,old,hit,803
1,25,female,native,other,2,3,30,57,35,old,old,hit,632
1,25,female,native,other,2,3,30,58,35,old,old,hit,987
1,25,female,native,other,2,3,30,59,35,new,new,cr,632
1,25,female,native,other,2,3,30,60,35,old,old,hit,724
1,25,female,native,other,2,3,31,1,10,new,new,cr,1331
1,25,female,native,other,2,3,31,2,10,new,new,cr,618
1,25,female,native,other,2,3,31,3,10,new,new,cr,614
1,25,female,native,other,2,3,31,4,10,new,old,fa,1307
1,25,female,native,other,2,3,31,5,10,new,new,cr,747
1,25,female,native,other,2,3,31,6,10,new,new,cr,578
1,25,female,native,other,2,3,31,7,10,new,new,cr,632
1,25,female,native,other,2,3,31,8,10,new,new,cr,555
1,25,female,native,other,2,3,31,9,10,new,new,cr,569
1,25,female,native,other,2,3,31,10,10,old,new,miss,1896
1,25,female,native,other,2,3,31,11,10,new,new,cr,807
1,25,female,native,other,2,3,31,12,10,new,new,cr,1107
1,25,female,native,other,2,3,31,13,10,new,new,cr,627
1,25,female,native,other,2,3,31,14,10,new,old,fa,927
1,25,female,native,other,2,3,31,15,10,new,old,fa,1478
1,25,female,native,other,2,3,31,16,10,old,old,hit,687
1,25,female,native,other,2,3,31,17,10,new,new,cr,849
1,25,female,native,other,2,3,31,18,10,new,new,cr,668
1,25,female,native,other,2,3,31,19,10,new,new,cr,1390
1,25,female,native,other,2,3,31,20,10,new,new,cr,754
1,25,female,native,other,2,3,31,21,10,new,new,cr,600
1,25,female,native,other,2,3,31,22,10,new,new,cr,510
1,25,female,native,other,2,3,31,23,10,new,new,cr,623
1,25,female,native,other,2,3,31,24,10,new,new,cr,626
1,25,female,native,other,2,3,31,25,10,new,new,cr,518
1,25,female,native,other,2,3,31,26,10,new,new,cr,607
1,25,female,native,other,2,3,31,27,10,new,new,cr,1460
1,25,female,native,other,2,3,31,28,10,new,new,cr,677
1,25,female,native,other,2,3,31,29,10,new,new,cr,479
1,25,female,native,other,2,3,31,30,10,new,new,cr,513
1,25,female,native,other,2,3,31,31,10,old,old,hit,1474
1,25,female,native,other,2,3,31,32,10,new,new,cr,633
1,25,female,native,other,2,3,31,33,10,new,new,cr,597
1,25,female,native,other,2,3,31,34,10,new,new,cr,538
1,25,female,native,other,2,3,31,35,10,new,new,cr,994
1,25,female,native,other,2,3,31,36,10,new,new,cr,702
1,25,female,native,other,2,3,31,37,10,new,new,cr,623
1,25,female,native,other,2,3,31,38,10,old,old,hit,875
1,25,female,native,other,2,3,31,39,10,new,new,cr,589
1,25,female,native,other,2,3,31,40,10,new,new,cr,1346
1,25,female,native,other,2,3,31,41,10,new,new,cr,928
1,25,female,native,other,2,3,31,42,10,new,new,cr,560
1,25,female,native,other,2,3,31,43,10,new,new,cr,606
1,25,female,native,other,2,3,31,44,10,new,new,cr,683
1,25,female,native,other,2,3,31,45,10,new,new,cr,1213
1,25,female,native,other,2,3,31,46,10,new,new,cr,600
1,25,female,native,other,2,3,31,47,10,old,new,miss,814
1,25,female,native,other,2,3,31,48,10,new,new,cr,642
1,25,female,native,other,2,3,31,49,10,old,old,hit,861
1,25,female,native,other,2,3,31,50,10,new,new,cr,759
1,25,female,native,other,2,3,31,51,10,new,new,cr,670
1,25,female,native,other,2,3,31,52,10,new,new,cr,920
1,25,female,native,other,2,3,31,53,10,new,new,cr,600
1,25,female,native,other,2,3,31,54,10,new,new,cr,749
1,25,female,native,other,2,3,31,55,10,new,new,cr,1300
1,25,female,native,other,2,3,31,56,10,new,new,cr,612
1,25,female,native,other,2,3,31,57,10,new,new,cr,624
1,25,female,native,other,2,3,31,58,10,new,new,cr,732
1,25,female,native,other,2,3,31,59,10,new,new,cr,652
1,25,female,native,other,2,3,31,60,10,new,new,cr,615
1,25,female,native,other,2,3,32,1,75,old,old,hit,1021
1,25,female,native,other,2,3,32,2,75,old,old,hit,4624
1,25,female,native,other,2,3,32,3,75,old,old,hit,1750
1,25,female,native,other,2,3,32,4,75,old,old,hit,827
1,25,female,native,other,2,3,32,5,75,old,old,hit,695
1,25,female,native,other,2,3,32,6,75,old,old,hit,672
1,25,female,native,other,2,3,32,7,75,old,old,hit,714
1,25,female,native,other,2,3,32,8,75,old,old,hit,1266
1,25,female,native,other,2,3,32,9,75,old,old,hit,1220
1,25,female,native,other,2,3,32,10,75,new,new,cr,775
1,25,female,native,other,2,3,32,11,75,old,old,hit,653
1,25,female,native,other,2,3,32,12,75,new,new,cr,1248
1,25,female,native,other,2,3,32,13,75,old,old,hit,587
1,25,female,native,other,2,3,32,14,75,old,new,miss,2929
1,25,female,native,other,2,3,32,15,75,old,old,hit,701
1,25,female,native,other,2,3,32,16,75,new,new,cr,1358
